time,accel_x,accel_y,accel_z,gyro_x,gyro_y,gyro_z,mag_x,mag_y,mag_z
0.0,2.1990039348602295,-8.270791053771973,-4.406383037567139,0.029932396486401558,-0.01542434748262167,0.12079859524965286,-22.595731735229492,45.8199348449707,-10.976323127746582
0.003,2.2133607864379883,-8.34018325805664,-4.302295207977295,0.04489859566092491,-0.007024950347840786,0.12461650371551514,-22.288803100585938,45.995323181152344,-11.151710510253906
0.011,2.062613010406494,-8.322237014770508,-4.2006001472473145,0.07223481684923172,0.029016099870204926,0.13515393435955048,-22.522653579711914,45.4837760925293,-10.260157585144043
0.021,1.9154545068740845,-8.209774017333984,-4.339384078979492,0.12828169763088226,0.08216137439012527,0.13118331134319305,-22.318035125732422,45.14761734008789,-11.370944023132324
0.031,2.021935224533081,-8.380861282348633,-3.9661033153533936,0.17669276893138885,0.128434419631958,0.1085812970995903,-22.244956970214844,45.86378479003906,-11.312481880187988
0.041,2.0578272342681885,-8.524430274963379,-4.107280254364014,0.18738290667533875,0.1895209401845932,0.08979719132184982,-22.230342864990234,45.761470794677734,-11.502485275268555
0.062,2.4335005283355713,-8.645268440246582,-4.013959884643555,0.2002110779285431,0.17791450023651123,0.05650503188371658,-22.084184646606445,45.84916687011719,-11.56094741821289
0.065,2.915654182434082,-8.651249885559082,-3.9493536949157715,0.18967366218566895,0.08292495459318161,0.06215553730726242,-22.274188995361328,45.67377853393555,-12.23326587677002
0.071,2.9204399585723877,-8.695516586303711,-3.920639753341675,0.16890422999858856,0.0354301817715168,0.07406741380691528,-22.683425903320312,45.542240142822266,-11.940953254699707
0.081,2.8929224014282227,-8.557929992675781,-4.183850288391113,0.15241087973117828,-0.04703662171959877,0.13057243824005127,-22.37649917602539,45.732242584228516,-11.6047945022583
0.091,2.5663022994995117,-8.551947593688965,-4.253242015838623,0.15317445993423462,-0.11636982858181,0.1514945775270462,-22.66880989074707,46.22917175292969,-11.9847993850708
0.101,2.4335005283355713,-8.39282512664795,-4.376472473144531,0.16768251359462738,-0.16722436249256134,0.14844025671482086,-22.274188995361328,46.185325622558594,-11.970184326171875
0.12,2.2396819591522217,-8.2695951461792,-4.299902439117432,0.19868391752243042,-0.17409659922122955,0.161268413066864,-22.347267150878906,46.19994354248047,-11.546331405639648
0.124,2.0027923583984375,-8.322237014770508,-4.035495281219482,0.2356412708759308,-0.15546520054340363,0.17379117012023926,-21.952646255493164,45.995323181152344,-12.116340637207031
0.131,1.8281164169311523,-8.423932075500488,-3.988835334777832,0.23839014768600464,-0.11468994617462158,0.17699819803237915,-22.11341667175293,45.70301055908203,-11.180940628051758
0.141,1.636690616607666,-8.420342445373535,-4.059423446655273,0.2496911585330963,-0.04214970022439957,0.17470745742321014,-21.19263458251953,46.287635803222656,-10.523239135742188
0.151,1.5409777164459229,-8.324629783630371,-4.106083393096924,0.26282477378845215,0.08078692108392715,0.18295413255691528,-21.455713272094727,46.00994110107422,-10.932476043701172
0.161,1.4715858697891235,-8.214560508728027,-4.041477203369141,0.29504790902137756,0.20387627184391022,0.17562375962734222,-21.353404998779297,46.62379455566406,-11.166325569152832
0.18,1.7312071323394775,-8.504091262817383,-3.750749349594116,0.31031954288482666,0.3257438838481903,0.1774563491344452,-21.236480712890625,46.872257232666016,-11.765565872192383
0.184,2.1272192001342773,-8.817551612854004,-3.7698919773101807,0.2762638032436371,0.4453207552433014,0.20173825323581696,-21.29494285583496,46.76995086669922,-12.715579986572266
0.191,2.4634108543395996,-8.924031257629395,-3.862015724182129,0.25106561183929443,0.44089198112487793,0.19456057250499725,-21.26571273803711,46.65302658081055,-12.803274154663086
0.201,3.022134780883789,-8.963513374328613,-4.143172264099121,0.19822576642036438,0.4086688458919525,0.21594086289405823,-21.251096725463867,46.57994842529297,-12.42326831817627
0.211,3.2961132526397705,-8.764909744262695,-4.31306266784668,0.17928895354270935,0.30146196484565735,0.2382374405860901,-21.57263946533203,47.1791877746582,-11.444022178649902
0.221,3.1824538707733154,-8.714659690856934,-4.097708702087402,0.17302757501602173,0.18646661937236786,0.2565633952617645,-21.426483154296875,47.00379943847656,-11.736333847045898
0.24,2.8079774379730225,-8.629714965820312,-4.061816215515137,0.15836679935455322,0.09162978827953339,0.27122417092323303,-21.514177322387695,47.9391975402832,-12.803274154663086
0.244,2.210968017578125,-8.423932075500488,-4.043870449066162,0.1742493212223053,0.031154125928878784,0.2506074607372284,-20.92955207824707,47.69073486328125,-12.335575103759766
0.251,2.0267207622528076,-8.310272216796875,-4.073780536651611,0.19792033731937408,0.05665775015950203,0.2428189367055893,-20.2718505859375,47.427650451660156,-12.043262481689453
0.261,1.8484554290771484,-8.282755851745605,-3.909872055053711,0.25335633754730225,0.14676035940647125,0.2402227520942688,-20.768781661987305,47.63227081298828,-12.394037246704102
0.271,1.628315806388855,-8.49332332611084,-3.620340585708618,0.28619036078453064,0.2898555397987366,0.25442537665367126,-21.119556427001953,47.500728607177734,-12.949429512023926
0.281,1.6666009426116943,-8.645268440246582,-3.565305471420288,0.2961169183254242,0.41752639412879944,0.25702154636383057,-20.783395767211914,47.74919891357422,-12.291727066040039
0.3,1.6378871202468872,-8.687142372131348,-3.445664644241333,0.2964223325252533,0.6644686460494995,0.32910364866256714,-21.236480712890625,47.07687759399414,-12.788658142089844
0.303,1.7742778062820435,-8.778069496154785,-3.576073169708252,0.3023782968521118,0.7168503403663635,0.33628129959106445,-21.57263946533203,47.71996307373047,-12.759428024291992
0.311,1.8939191102981567,-8.855835914611816,-3.957728624343872,0.3017674386501312,0.7698429226875305,0.33292156457901,-21.499561309814453,48.20227813720703,-13.183279037475586
0.321,2.0578272342681885,-8.934799194335938,-3.88594388961792,0.24129176139831543,0.7796167731285095,0.2779436707496643,-22.09880256652832,48.07073974609375,-12.306343078613281
0.331,2.8941190242767334,-9.157332420349121,-4.229313850402832,0.13607022166252136,0.6395758986473083,0.14324790239334106,-21.48494529724121,47.9391975402832,-12.964046478271484
0.341,4.780859470367432,-9.243474006652832,-4.323830604553223,0.06261368840932846,0.26969701051712036,-0.02474004216492176,-21.748027801513672,48.085357666015625,-12.61327075958252
0.362,5.68773889541626,-9.10708236694336,-3.8021950721740723,0.08720101416110992,-0.08460482954978943,0.04688390716910362,-21.353404998779297,47.79304122924805,-12.803274154663086
0.365,3.0245277881622314,-9.339186668395996,-3.504288673400879,0.014508049935102463,-0.2932153046131134,0.25442537665367126,-21.616485595703125,48.01227569580078,-12.759428024291992
0.371,2.242074728012085,-9.18724250793457,-3.7184462547302246,-0.018020525574684143,-0.31612274050712585,0.23518311977386475,-21.119556427001953,47.734580993652344,-13.738672256469727
0.381,1.7240287065505981,-8.97787094116211,-3.631108045578003,-0.015271631069481373,-0.34697145223617554,0.10552696883678436,-21.178016662597656,47.8807373046875,-13.066354751586914
0.391,1.798206090927124,-8.98265552520752,-3.531806230545044,-0.029168814420700073,-0.25442537665367126,0.029016099870204926,-21.324174880981445,48.18766403198242,-12.832504272460938
0.401,1.9405790567398071,-8.87378215789795,-3.785445213317871,-0.006872233934700489,-0.1794416606426239,-0.003817907767370343,-21.20724868774414,47.661502838134766,-13.022507667541504
0.42,1.415354609489441,-8.807979583740234,-3.9625141620635986,0.0685696229338646,0.17150041460990906,-0.027030786499381065,-21.455713272094727,48.34843444824219,-13.037124633789062
0.423,0.7082754373550415,-9.011369705200195,-3.724428415298462,0.06918048858642578,0.23915374279022217,-0.0354301817715168,-21.57263946533203,47.60304260253906,-13.139432907104492
0.431,0.8805586695671082,-9.213563919067383,-3.713660717010498,0.04871650040149689,0.4001167118549347,-0.07773260027170181,-21.29494285583496,47.456886291503906,-12.467114448547363
0.441,1.5230315923690796,-9.211170196533203,-3.838087320327759,0.02321287989616394,0.6148358583450317,-0.14737124741077423,-21.938030242919922,48.20227813720703,-13.767904281616211
0.451,2.1738791465759277,-9.449256896972656,-3.7459635734558105,-0.03634648025035858,0.7241807579994202,-0.09224064648151398,-21.806488037109375,47.74919891357422,-12.920199394226074
0.461,2.3605194091796875,-9.1776704788208,-4.152743339538574,-0.13668109476566315,0.7719809412956238,-0.08155050873756409,-22.215726852416992,47.95381546020508,-12.817889213562012
0.482,3.047259569168091,-8.863015174865723,-4.077369689941406,-0.1036943718791008,0.794277548789978,-0.0858265683054924,-22.902660369873047,47.296112060546875,-12.905582427978516
0.485,3.181257724761963,-8.723034858703613,-3.913461446762085,-0.09025533497333527,0.7298312187194824,-0.0073303827084600925,-18.868751525878906,47.529964447021484,-13.914060592651367
0.491,3.0592236518859863,-8.841479301452637,-3.6981072425842285,-0.05650503188371658,0.6021604537963867,0.0010690141934901476,-23.063430786132812,47.51534652709961,-12.744811058044434
0.501,2.4837498664855957,-8.799604415893555,-3.7363924980163574,-0.04886921867728233,0.47510045766830444,-0.003817907767370343,-22.698041915893555,47.909969329833984,-13.154048919677734
0.511,2.5663022994995117,-8.402396202087402,-3.909872055053711,-0.019394971430301666,0.27641651034355164,-0.11087203770875931,-22.610347747802734,47.41303634643555,-13.154048919677734
0.521,2.644068956375122,-8.271987915039062,-3.87876558303833,0.03130684420466423,0.08567384630441666,-0.13576479256153107,-22.93189239501953,47.471500396728516,-12.496346473693848
0.54,2.390429735183716,-8.01954460144043,-4.206582069396973,0.18600846827030182,-0.06261368840932846,-0.09483683109283447,-23.180356979370117,47.471500396728516,-12.174802780151367
0.543,2.069791555404663,-7.629514694213867,-4.360918998718262,0.24892757833003998,-0.07254024595022202,-0.08200865983963013,-22.917274475097656,47.57380676269531,-13.154048919677734
0.551,1.8592231273651123,-7.7383880615234375,-3.6849467754364014,0.33139437437057495,-0.04444044828414917,-0.02733621932566166,-22.93189239501953,47.529964447021484,-12.905582427978516
0.561,1.7180465459823608,-8.333003997802734,-3.3499515056610107,0.37827828526496887,0.09560041129589081,0.11484266072511673,-23.078046798706055,47.61765670776367,-13.022507667541504
0.571,1.9704893827438354,-8.523233413696289,-3.5880372524261475,0.3854559361934662,0.17043140530586243,0.20952677726745605,-22.814966201782227,47.5591926574707,-13.504822731018066
0.581,2.7696919441223145,-8.419146537780762,-3.4133615493774414,0.40683624148368835,0.05314527824521065,0.23273965716362,-23.03420066833496,48.23151397705078,-13.139432907104492
0.601,1.8843477964401245,-8.912067413330078,-3.2853453159332275,0.3246748745441437,-0.1892155110836029,0.44287729263305664,-23.194971084594727,48.24612808227539,-13.548670768737793
0.605,1.490728497505188,-8.778069496154785,-3.3846476078033447,0.31932979822158813,-0.2102903574705124,0.4395175576210022,-22.537269592285156,48.33382034301758,-13.475592613220215
0.611,1.184447169303894,-8.848657608032227,-3.1453652381896973,0.29138270020484924,-0.24724771082401276,0.42149701714515686,-22.20111083984375,48.085357666015625,-13.694826126098633
0.621,1.1940184831619263,-8.839086532592773,-3.445664644241333,0.2295326143503189,-0.2298380434513092,0.4101960062980652,-21.587255477905273,48.75767135620117,-13.811750411987305
0.631,1.2251251935958862,-8.520841598510742,-3.8321051597595215,0.2076941728591919,-0.1492038369178772,0.41630467772483826,-21.251096725463867,48.55305480957031,-13.358667373657227
0.641,1.219143033027649,-8.34018325805664,-3.829712390899658,0.2301434725522995,0.00015271631127689034,0.4150829017162323,-21.689563751220703,48.713829040527344,-13.227126121520996
0.66,1.332802176475525,-8.167899131774902,-3.957728624343872,0.30512717366218567,0.3220787048339844,0.4237877428531647,-21.309558868408203,49.049983978271484,-14.600994110107422
0.664,2.073380708694458,-8.096115112304688,-3.9696924686431885,0.31871894001960754,0.3721696436405182,0.4105014503002167,-20.447237014770508,48.72844314575195,-14.147910118103027
0.671,2.8103702068328857,-8.039883613586426,-4.185046672821045,0.3539963960647583,0.3686571717262268,0.4086688458919525,-20.958784103393555,48.55305480957031,-14.761765480041504
0.681,3.672982692718506,-7.911867618560791,-4.12642240524292,0.42241328954696655,0.2252565622329712,0.43050727248191833,-20.98801612854004,49.15229415893555,-14.469453811645508
0.691,3.610769271850586,-7.768298149108887,-4.104887008666992,0.4876231551170349,0.04566217586398125,0.4671592116355896,-20.403390884399414,48.9622917175293,-14.571762084960938
0.701,3.126222848892212,-7.671389579772949,-4.199403762817383,0.5648975968360901,-0.08002334833145142,0.49037206172943115,-20.491085052490234,49.10844802856445,-14.717918395996094
0.72,3.4887354373931885,-7.745566368103027,-4.151546955108643,0.6039929986000061,-0.3572034239768982,0.40851613879203796,-20.008769989013672,49.32768249511719,-15.024847030639648
0.724,3.5270204544067383,-7.678567886352539,-4.094119548797607,0.6032294034957886,-0.3978259861469269,0.4007275700569153,-19.74568748474121,49.37152862548828,-15.273311614990234
0.731,3.4648072719573975,-7.6630144119262695,-3.7806599140167236,0.5954408645629883,-0.5047274231910706,0.3689625859260559,-19.409530639648438,49.95615005493164,-15.477930068969727
0.741,3.0963122844696045,-7.794619560241699,-3.4468607902526855,0.5314527750015259,-0.5852088928222656,0.327729195356369,-18.766441345214844,50.02922821044922,-16.35486602783203
0.751,2.480160713195801,-7.648657321929932,-3.111865520477295,0.4141666293144226,-0.6269004344940186,0.20601430535316467,-18.868751525878906,50.08769607543945,-16.98333740234375
0.761,2.7086751461029053,-7.597211837768555,-3.1788647174835205,0.29504790902137756,-0.663705050945282,0.07757988572120667,-18.591054916381836,49.80999755859375,-16.398714065551758
0.78,3.950549840927124,-7.373482704162598,-4.043870449066162,0.14752395451068878,-0.5823072791099548,0.062460970133543015,-18.766441345214844,50.17538833618164,-16.2525577545166
0.783,4.226921081542969,-7.269395351409912,-4.298705577850342,0.14065171778202057,-0.5867360830307007,0.06780604273080826,-18.488744735717773,50.29231262207031,-16.661794662475586
0.791,4.534398555755615,-7.194020748138428,-4.636093616485596,0.14049901068210602,-0.6201809048652649,0.08216137439012527,-18.152587890625,49.839229583740234,-16.866413116455078
0.801,4.700699806213379,-7.417749881744385,-4.759324073791504,0.1742493212223053,-0.6763805150985718,0.14538592100143433,-17.962583541870117,49.576148986816406,-15.843321800231934
0.811,4.926821708679199,-7.976474285125732,-4.930410861968994,0.1944078654050827,-0.7269296646118164,0.1768454760313034,-17.59719467163086,49.663841247558594,-17.392576217651367
0.821,5.229514122009277,-8.458627700805664,-4.823930263519287,0.21349740028381348,-0.8242099285125732,0.19165895879268646,-17.553346633911133,50.01461410522461,-17.114879608154297
0.839,4.431507587432861,-9.802197456359863,-4.624129772186279,0.15027284622192383,-0.7192938327789307,0.27488934993743896,-17.114879608154297,50.979244232177734,-17.100261688232422
0.842,3.950549840927124,-9.974480628967285,-4.694717884063721,0.1134682148694992,-0.6178901791572571,0.2655736804008484,-16.88102912902832,50.42385482788086,-17.085647583007812
0.851,3.3260233402252197,-10.185050010681152,-4.703092575073242,0.02229658141732216,-0.34666600823402405,0.182648703455925,-16.35486602783203,50.13154220581055,-17.59719467163086
0.861,3.3822548389434814,-10.475777626037598,-4.715056896209717,-0.0887281745672226,0.003512475173920393,0.06688974052667618,-15.945630073547363,50.526161193847656,-17.465654373168945
0.871,4.112065315246582,-10.876575469970703,-4.730610370635986,-0.20906862616539001,0.3199406564235687,-0.046273037791252136,-16.574100494384766,50.62847137451172,-17.933351516723633
0.881,4.7796630859375,-10.64686393737793,-5.079962253570557,-0.3237585723400116,0.6197227835655212,-0.15027284622192383,-16.749486923217773,50.65769958496094,-17.59719467163086
0.893,5.559723377227783,-10.200602531433105,-5.181657314300537,-0.4222606122493744,0.8655960559844971,-0.2877175211906433,-16.98333740234375,50.42385482788086,-16.647178649902344
0.901,5.9676995277404785,-9.987641334533691,-5.0943193435668945,-0.484416127204895,0.9363037347793579,-0.4040873646736145,-17.567962646484375,50.02922821044922,-16.96872329711914
0.911,6.126822471618652,-9.570094108581543,-5.015356063842773,-0.5697845816612244,0.9202684760093689,-0.5424483418464661,-17.933351516723633,49.89768981933594,-15.390236854553223
0.921,6.245266914367676,-8.97787094116211,-5.009374141693115,-0.6243042945861816,0.776715099811554,-0.7247915863990784,-19.17568016052246,50.01461410522461,-15.741011619567871
0.931,6.439085483551025,-8.679964065551758,-4.97348165512085,-0.6763805150985718,0.5658139586448669,-0.9030115604400635,-19.409530639648438,49.649227142333984,-15.667933464050293
0.941,6.489335060119629,-8.530412673950195,-5.041677474975586,-0.7250970005989075,0.31154128909111023,-1.059698462486267,-19.891843795776367,49.98538589477539,-15.931015014648438
0.957,5.429314136505127,-8.01834774017334,-5.117051124572754,-0.7907650470733643,-0.014355332590639591,-1.2948817014694214,-21.00263023376465,49.54691696166992,-14.703303337097168
0.961,5.283352375030518,-7.931010723114014,-5.132604598999023,-0.7970263957977295,-0.07177666574716568,-1.3701707124710083,-20.973400115966797,49.56153106689453,-14.177140235900879
0.971,4.569094657897949,-7.716853141784668,-4.968696117401123,-0.8017606139183044,-0.12293662130832672,-1.5089898109436035,-21.718795776367188,49.18152618408203,-15.375621795654297
0.981,4.6061835289001465,-7.881957530975342,-4.7641096115112305,-0.8040513396263123,-0.10125090926885605,-1.6282613277435303,-22.5518856048584,49.239986419677734,-14.86407470703125
0.991,4.8538408279418945,-8.176274299621582,-4.625326156616211,-0.8106181621551514,-0.041691552847623825,-1.686140775680542,-23.472667694091797,48.77228546142578,-13.870213508605957
1.009,4.945964336395264,-8.395217895507812,-4.372883319854736,-0.811076283454895,0.003359758760780096,-1.7165312767028809,-24.101139068603516,48.83074951171875,-13.44636058807373
1.013,5.408975601196289,-8.72662353515625,-4.386044025421143,-0.877966046333313,0.04505131021142006,-1.749365210533142,-24.87576675415039,48.27535629272461,-13.051739692687988
1.021,5.639883041381836,-8.61057186126709,-4.522434711456299,-0.9143125414848328,-0.005497787147760391,-1.7617353200912476,-25.43115997314453,48.14381790161133,-12.101724624633789
1.031,5.587240695953369,-8.426324844360352,-4.5822553634643555,-0.9556986689567566,-0.11071932315826416,-1.7649424076080322,-26.42502212524414,47.58842468261719,-11.867875099182129
1.041,5.3694939613342285,-8.556733131408691,-4.445864677429199,-1.0033460855484009,-0.19685132801532745,-1.7539467811584473,-27.24349594116211,47.2230339050293,-11.137094497680664
1.051,5.044069766998291,-8.535198211669922,-4.377668857574463,-1.0561859607696533,-0.25625795125961304,-1.7487545013427734,-27.842735290527344,46.740718841552734,-11.356328010559082
1.069,4.759324073791504,-8.669196128845215,-3.9864423274993896,-1.1287262439727783,-0.2393064647912979,-1.7092009782791138,-28.368898391723633,46.44840621948242,-10.786319732666016
1.073,4.168296813964844,-8.240880966186523,-4.433900356292725,-1.1340713500976562,-0.09025533497333527,-1.6543757915496826,-29.45045280456543,45.70301055908203,-10.581701278686523
1.081,4.144368648529053,-7.884350299835205,-4.4542388916015625,-1.1032226085662842,-0.0073303827084600925,-1.6511688232421875,-29.87430763244629,45.206077575683594,-10.143233299255371
1.091,4.479363918304443,-7.715656280517578,-4.487738609313965,-1.0387763977050781,0.11468994617462158,-1.6329954862594604,-30.254310607910156,44.85530471801758,-9.807073593139648
1.101,4.874179840087891,-7.822136878967285,-4.4135613441467285,-0.9599747061729431,0.18616119027137756,-1.606575608253479,-31.05817222595215,44.636070251464844,-9.251681327819824
1.111,5.155336380004883,-7.808976650238037,-4.278366565704346,-0.8448265790939331,0.19364428520202637,-1.5706872940063477,-31.788951873779297,43.56913375854492,-8.973984718322754
1.13,5.529813289642334,-8.12961483001709,-3.8356947898864746,-0.7945829629898071,0.1290452778339386,-1.549612283706665,-32.57819366455078,42.92604446411133,-8.389359474182129
1.134,5.842076301574707,-8.175078392028809,-3.88594388961792,-0.7811439037322998,-0.01664607785642147,-1.5120441913604736,-33.19205093383789,42.516807556152344,-8.287050247192383
1.141,5.56450891494751,-8.075776100158691,-3.919443368911743,-0.7945829629898071,-0.12492194026708603,-1.4958562850952148,-33.981292724609375,42.3414192199707,-7.921660900115967
1.151,5.12901496887207,-7.9585280418396,-3.9326038360595703,-0.8240572214126587,-0.22999075055122375,-1.486693263053894,-34.127445220947266,42.09295654296875,-8.053200721740723
1.161,5.0356950759887695,-7.95733118057251,-3.9732820987701416,-0.855516791343689,-0.2765692174434662,-1.4611896276474,-34.85823059082031,41.42063903808594,-7.877813339233398
1.171,5.0596232414245605,-7.77906608581543,-4.00199556350708,-0.8626943826675415,-0.2773328125476837,-1.4156802892684937,-34.785152435302734,40.74831771850586,-7.322420120239258
1.189,4.668396949768066,-7.484748840332031,-3.9493536949157715,-0.8527678847312927,-0.2457205355167389,-1.3503175973892212,-36.4074821472168,40.6021614074707,-6.796258926391602
1.195,4.061816215515137,-7.1988067626953125,-3.944568157196045,-0.8196284174919128,-0.15241087973117828,-1.3049609661102295,-36.33440399169922,39.330604553222656,-6.927798748016357
1.201,4.100101470947266,-6.988238334655762,-4.051048755645752,-0.7929030656814575,-0.10705412924289703,-1.2979358434677124,-36.275943756103516,39.330604553222656,-6.869336128234863
1.211,4.207778453826904,-6.790830135345459,-4.004388809204102,-0.7270823121070862,-0.04871650040149689,-1.269988775253296,-36.97748947143555,39.08213806152344,-5.9193220138549805
1.221,4.424328804016113,-6.766901969909668,-3.961317777633667,-0.6537785530090332,-0.04688390716910362,-1.2463178634643555,-37.34288024902344,38.833675384521484,-5.1300787925720215
1.231,4.602594375610352,-6.6652069091796875,-3.9804604053497314,-0.5911648273468018,-0.0633772686123848,-1.2116512060165405,-38.35136032104492,38.1028938293457,-5.904706001281738
1.25,4.502095699310303,-6.510870456695557,-3.8333017826080322,-0.52702397108078,-0.10705412924289703,-1.1850786209106445,-37.854427337646484,37.605960845947266,-6.153171539306641
1.254,4.351347923278809,-6.557530403137207,-3.765106201171875,-0.45524731278419495,-0.1999056488275528,-1.1459832191467285,-38.263668060302734,36.55363845825195,-5.52470064163208
1.261,4.388436794281006,-6.457031726837158,-4.042673587799072,-0.42577308416366577,-0.23548854887485504,-1.1372783184051514,-38.4244384765625,36.729026794433594,-4.925460338592529
1.271,4.577469348907471,-6.660421848297119,-3.6634113788604736,-0.3608686327934265,-0.34147366881370544,-1.0807733535766602,-38.68751907348633,36.495174407958984,-4.793920040130615
1.281,4.820341110229492,-7.100700855255127,-3.4911282062530518,-0.3643811345100403,-0.41370847821235657,-0.9937250018119812,-38.90675354003906,36.12978744506836,-5.334697246551514
1.291,4.65523624420166,-6.995416641235352,-3.7292141914367676,-0.37568211555480957,-0.48456883430480957,-0.8675813674926758,-38.68751907348633,35.662086486816406,-4.545454502105713
1.31,4.143172264099121,-6.820741176605225,-3.882354736328125,-0.36651915311813354,-0.5468770861625671,-0.7385360598564148,-38.71674728393555,35.15053939819336,-4.282373428344727
1.314,3.3379874229431152,-6.966702938079834,-3.8871400356292725,-0.2713768780231476,-0.5322163105010986,-0.5238169431686401,-38.775211334228516,35.06284713745117,-4.545454502105713
1.321,3.0580272674560547,-7.232306003570557,-4.2006001472473145,-0.23441952466964722,-0.46990808844566345,-0.42791110277175903,-39.27214050292969,35.179771423339844,-4.370067119598389
1.331,3.4959137439727783,-7.3160552978515625,-4.480560302734375,-0.08750644326210022,-0.36911532282829285,-0.3428480923175812,-38.51213073730469,34.43437576293945,-3.595440149307251
1.341,3.888336658477783,-7.109076023101807,-4.341776371002197,0.0708603635430336,-0.314442902803421,-0.18784105777740479,-39.140602111816406,34.60976028442383,-3.683133363723755
1.351,3.6574294567108154,-7.2430739402771,-3.6945178508758545,0.20051652193069458,-0.3019201457500458,-0.04337143152952194,-38.92136764526367,34.755916595458984,-4.413913726806641
1.37,3.3990042209625244,-7.592426300048828,-3.152543783187866,0.2565633952617645,-0.2646573483943939,0.06750060617923737,-38.804443359375,34.96053695678711,-4.706226348876953
1.374,3.431307554244995,-7.389035701751709,-3.768695592880249,0.23273965716362,-0.26282477378845215,0.15974126756191254,-38.64366912841797,34.93130874633789,-4.296989440917969
1.381,3.4480574131011963,-7.113861083984375,-4.092923164367676,0.2356412708759308,-0.30695977807044983,0.18860463798046112,-38.8629035949707,35.06284713745117,-4.384682655334473
1.391,3.5952160358428955,-7.3675007820129395,-4.144368648529053,0.22357667982578278,-0.3903428912162781,0.2330450862646103,-38.43905258178711,35.13592529296875,-4.399298667907715
1.401,3.6011979579925537,-7.895118236541748,-4.091726303100586,0.20341812074184418,-0.46043968200683594,0.3116939663887024,-38.00058364868164,35.23823165893555,-3.843905448913574
1.411,3.359522819519043,-8.147561073303223,-4.280759334564209,0.16798794269561768,-0.5097670555114746,0.39675697684288025,-37.75211715698242,34.6682243347168,-3.9315991401672363
1.43,2.8450660705566406,-7.994420051574707,-4.752145767211914,0.15271630883216858,-0.5059491395950317,0.5059491395950317,-37.094417572021484,35.42823791503906,-3.800058364868164
1.434,2.8283162117004395,-7.767101764678955,-4.71027135848999,0.2174680233001709,-0.39874228835105896,0.5824600458145142,-36.69979476928711,35.45746612548828,-4.925460338592529
1.441,3.1680970191955566,-7.828119277954102,-5.021337985992432,0.2451096773147583,-0.3153591752052307,0.6418666243553162,-36.69979476928711,36.115169525146484,-3.946214437484741
1.451,3.7184462547302246,-7.552944660186768,-5.362315654754639,0.32940909266471863,-0.20372354984283447,0.7512114644050598,-36.71440887451172,35.735164642333984,-3.9315991401672363
1.461,3.964907169342041,-7.488338470458984,-5.321637153625488,0.4161519408226013,-0.15913039445877075,0.8825475573539734,-36.05670928955078,36.422096252441406,-4.662379264831543
1.471,3.930211305618286,-7.469195365905762,-5.278566360473633,0.5190827250480652,-0.12431107461452484,1.0494664907455444,-35.77901077270508,36.275943756103516,-4.486992359161377
1.49,3.5150563716888428,-7.576872825622559,-4.9399824142456055,0.5879577994346619,-0.10201448947191238,1.157131552696228,-35.355159759521484,37.16749572753906,-4.676995277404785
1.495,2.9180471897125244,-7.689335346221924,-4.7294135093688965,0.6404921412467957,0.03191770985722542,1.2614367008209229,-34.82899475097656,37.16749572753906,-4.9400763511657715
1.501,3.095116138458252,-7.548158645629883,-4.968696117401123,0.6650795340538025,0.04871650040149689,1.2637274265289307,-35.22361755371094,37.664424896240234,-4.530838966369629
1.511,3.1453652381896973,-7.438088893890381,-4.859822750091553,0.7118107080459595,0.04948008432984352,1.3034337759017944,-35.179771423339844,37.854427337646484,-5.027769565582275
1.521,2.754138708114624,-7.277770042419434,-4.883750915527344,0.7307475805282593,0.04642575979232788,1.3086260557174683,-34.46360778808594,37.7667350769043,-5.1008477210998535
1.531,2.6428725719451904,-7.249055862426758,-4.5391845703125,0.7489207983016968,0.019089538604021072,1.2728904485702515,-34.229759216308594,38.70213317871094,-5.1008477210998535
1.55,2.537588357925415,-7.307680130004883,-4.122833251953125,0.6875288486480713,0.10720684379339218,1.2814425230026245,-32.70973205566406,39.11137008666992,-5.5977783203125
1.554,2.400001049041748,-7.052844524383545,-4.12642240524292,0.669966459274292,0.1498146951198578,1.2819007635116577,-32.59280776977539,39.63753128051758,-5.860859394073486
1.561,2.4059829711914062,-6.826723098754883,-4.076173305511475,0.6458372473716736,0.2142609804868698,1.2878565788269043,-32.5051155090332,39.35983657836914,-5.80239725112915
1.571,2.392822504043579,-6.716652870178223,-3.999603033065796,0.622013509273529,0.30695977807044983,1.3022119998931885,-32.402809143066406,40.07600402832031,-6.284712314605713
1.581,2.317448616027832,-6.70588493347168,-4.096512317657471,0.5965099334716797,0.3978259861469269,1.305266261100769,-32.31510925292969,40.324466705322266,-6.138556003570557
1.591,2.605783700942993,-6.929614543914795,-4.152743339538574,0.5991060733795166,0.42867469787597656,1.2979358434677124,-31.56971549987793,40.74831771850586,-6.387021541595459
1.61,3.25663161277771,-7.746763229370117,-4.0079779624938965,0.5839871764183044,0.3445279896259308,1.3116803169250488,-31.803565979003906,41.21601867675781,-7.205495357513428
1.613,3.297309398651123,-7.8376898765563965,-4.168296813964844,0.5833762884140015,0.3289509117603302,1.3125966787338257,-31.218942642211914,41.47909927368164,-6.767026901245117
1.621,3.370290756225586,-7.936992645263672,-4.329812526702881,0.5937610268592834,0.266184538602829,1.3110694885253906,-31.20432472229004,41.712947845458984,-6.8547210693359375
1.631,3.3020951747894287,-8.204988479614258,-4.2484564781188965,0.631481945514679,0.15745051205158234,1.3164145946502686,-30.678165435791016,41.84449005126953,-7.541654109954834
1.641,3.1645078659057617,-8.894121170043945,-4.0319061279296875,0.6527094841003418,0.08811730891466141,1.3351987600326538,-30.605087280273438,42.063724517822266,-7.3370361328125
1.651,2.99222469329834,-9.46480941772461,-3.8979079723358154,0.6316346526145935,0.076052725315094,1.352913737297058,-30.122772216796875,42.253726959228516,-7.629348278045654
1.67,3.0077779293060303,-9.547362327575684,-4.167100429534912,0.6264423131942749,0.10262536257505417,1.3559681177139282,-28.778135299682617,42.896812438964844,-8.447822570800781
1.673,2.8797619342803955,-9.352347373962402,-4.273581027984619,0.6291911602020264,0.11331550031900406,1.3559681177139282,-28.500438690185547,43.01374053955078,-7.8485822677612305
1.681,2.693121910095215,-9.206384658813477,-4.369294166564941,0.6372851133346558,0.13500121235847473,1.341460108757019,-28.89505958557129,43.21835708618164,-8.418591499328613
1.691,2.4837498664855957,-9.115457534790039,-4.208974838256836,0.665232241153717,0.182648703455925,1.3083206415176392,-28.16427993774414,43.53989791870117,-8.462437629699707
1.701,2.403590202331543,-9.440881729125977,-3.7052857875823975,0.6473644375801086,0.2632829248905182,1.289689302444458,-27.988893508911133,44.03683090209961,-8.959368705749512
1.711,2.462214469909668,-9.206384658813477,-3.9457645416259766,0.5963572263717651,0.3623957931995392,1.238376498222351,-27.871967315673828,44.13914108276367,-8.930137634277344
1.73,2.730210542678833,-8.525627136230469,-3.9625141620635986,0.5616905689239502,0.4311181306838989,1.1290316581726074,-27.316574096679688,44.48991394042969,-9.704765319824219
1.734,2.715853691101074,-8.404788970947266,-3.988835334777832,0.5532912015914917,0.4323398768901825,1.1050552129745483,-27.1704158782959,44.928382873535156,-9.763227462768555
1.741,2.6285154819488525,-8.288737297058105,-4.120440483093262,0.5496259927749634,0.41890081763267517,1.0574077367782593,-27.06810760498047,45.03069305419922,-9.675533294677734
1.751,2.664407968521118,-8.251648902893066,-4.095315933227539,0.5597052574157715,0.4095851480960846,0.9938777089118958,-26.39579200744629,45.118385314941406,-9.909382820129395
1.761,2.761317014694214,-8.280362129211426,-3.912264823913574,0.5703954100608826,0.3819434940814972,0.9416487216949463,-26.161941528320312,45.176849365234375,-9.880152702331543
1.771,2.8761725425720215,-8.505288124084473,-3.865604877471924,0.5816964507102966,0.32971450686454773,0.9082038998603821,-26.045015335083008,44.89915466308594,-9.690149307250977
1.79,3.047259569168091,-9.018548011779785,-3.744767427444458,0.6056728959083557,0.22082778811454773,0.8808676600456238,-26.001171112060547,45.790706634521484,-10.420929908752441
1.794,3.0340988636016846,-9.09990406036377,-3.7495527267456055,0.6067418456077576,0.20387627184391022,0.8805622458457947,-25.606548309326172,46.19994354248047,-10.45016098022461
1.801,3.0388846397399902,-9.066404342651367,-3.841676712036133,0.6148358583450317,0.16768251359462738,0.8689557909965515,-25.621164321899414,46.1414794921875,-10.099386215209961
1.811,2.974278450012207,-8.973084449768066,-3.7806599140167236,0.6272058486938477,0.10720684379339218,0.8533787131309509,-24.934228897094727,45.77608871459961,-11.51710033416748
1.821,2.93001127243042,-8.884550094604492,-3.7471601963043213,0.6327036619186401,0.07269296050071716,0.8530732989311218,-24.68576431274414,46.097633361816406,-11.341712951660156
1.831,2.985046148300171,-8.792426109313965,-3.8763725757598877,0.6441574096679688,0.023365594446659088,0.8371908068656921,-24.232681274414062,46.126861572265625,-10.815550804138184
1.848,2.7146570682525635,-8.798408508300781,-3.775874137878418,0.6632469296455383,-0.007941247895359993,0.8280278444290161,-23.9695987701416,46.81379699707031,-11.093247413635254
1.852,2.6691935062408447,-8.82951545715332,-3.76151704788208,0.6624833345413208,-0.007788531482219696,0.8274169564247131,-23.5895938873291,46.76995086669922,-11.137094497680664
1.861,2.4538395404815674,-8.9850492477417,-3.7878382205963135,0.6568328738212585,-0.0044287727214396,0.8049676418304443,-23.954984664916992,47.00379943847656,-11.166325569152832
1.871,2.2947168350219727,-9.06879711151123,-3.744767427444458,0.6440047025680542,0.03329215571284294,0.7750352621078491,-23.151124954223633,47.51534652709961,-12.072493553161621
1.881,2.108076810836792,-9.117850303649902,-3.671786069869995,0.6336199641227722,0.15913039445877075,0.7638869881629944,-23.00497055053711,47.69073486328125,-11.619409561157227
1.899,1.903490424156189,-9.42054271697998,-3.1896326541900635,0.5900958180427551,0.27320948243141174,0.7600690722465515,-22.464191436767578,47.79304122924805,-12.394037246704102
1.903,2.042273998260498,-9.351150512695312,-3.4025938510894775,0.5175555348396301,0.42806383967399597,0.7480044364929199,-22.347267150878906,48.216896057128906,-12.584039688110352
1.911,2.1343977451324463,-8.997013092041016,-3.5497522354125977,0.49296826124191284,0.5181664228439331,0.7493789196014404,-21.996492385864258,47.76381301879883,-12.554807662963867
1.921,2.224128484725952,-8.630910873413086,-3.671786069869995,0.48579058051109314,0.5871942043304443,0.7455610036849976,-22.011106491088867,48.88921356201172,-12.861736297607422
1.931,2.2061824798583984,-8.58784008026123,-3.7220354080200195,0.4938845634460449,0.6388123035430908,0.7425066828727722,-22.011106491088867,48.31920623779297,-13.402514457702637
1.941,2.0997018814086914,-8.744569778442383,-3.851248025894165,0.5146539211273193,0.7183775305747986,0.7137960195541382,-21.981876373291016,48.52382278442383,-12.686349868774414
1.951,2.3258235454559326,-8.731410026550293,-3.7782669067382812,0.5406157374382019,0.7814493775367737,0.6989825963973999,-21.894182205200195,48.56766891479492,-12.89096736907959
1.964,2.441875457763672,-8.784051895141602,-3.61435866355896,0.5664247870445251,0.8321511745452881,0.7101308107376099,-22.157264709472656,49.26921844482422,-13.110200881958008
1.971,2.4394824504852295,-8.788837432861328,-3.5820553302764893,0.5800164937973022,0.8636107444763184,0.7153232097625732,-21.879568099975586,49.37152862548828,-13.577900886535645
1.981,2.489731788635254,-8.714659690856934,-3.4612178802490234,0.5911648273468018,0.8895725011825562,0.7220426797866821,-21.57263946533203,49.56153106689453,-13.548670768737793
1.991,2.7146570682525635,-8.656035423278809,-3.156132936477661,0.5919284224510193,0.8570439219474792,0.7333437204360962,-21.704179763793945,49.18152618408203,-14.410990715026855
2.001,2.968296527862549,-8.554340362548828,-3.460021495819092,0.575893223285675,0.7632761001586914,0.7247915863990784,-22.04033851623535,49.4007568359375,-13.914060592651367
2.02,3.160918712615967,-8.358129501342773,-3.9074792861938477,0.5809328556060791,0.6221662163734436,0.7110471725463867,-21.938030242919922,49.86845779418945,-14.937153816223145
2.024,3.548555612564087,-8.48016357421875,-4.046262741088867,0.6224716901779175,0.3675881624221802,0.6801984310150146,-21.674949645996094,50.0,-14.937153816223145
2.031,3.5258240699768066,-8.739784240722656,-4.153940200805664,0.6441574096679688,0.2454151064157486,0.6902776956558228,-21.499561309814453,50.043846130371094,-15.22946548461914
2.041,3.253042459487915,-8.880961418151855,-4.2616167068481445,0.6933320164680481,0.09300423413515091,0.6962336897850037,-21.163402557373047,50.42385482788086,-16.15024757385254
2.051,3.1345977783203125,-8.894121170043945,-4.109673023223877,0.7382306456565857,-0.005192354787141085,0.6814201474189758,-20.82724380493164,50.46770095825195,-16.311019897460938
2.061,2.882154941558838,-8.885746002197266,-3.9517464637756348,0.7747297883033752,-0.058490343391895294,0.6863070726394653,-20.242618560791016,50.67231750488281,-15.4633150100708
2.079,2.4466609954833984,-8.848657608032227,-3.8811581134796143,0.8002334237098694,-0.06948591768741608,0.6737843155860901,-19.99415397644043,50.65769958496094,-16.398714065551758
2.083,2.361715793609619,-8.970691680908203,-3.862015724182129,0.8132143616676331,-0.07147122919559479,0.6110179424285889,-19.26337242126465,50.774627685546875,-16.807950973510742
2.091,2.5088744163513184,-9.150154113769531,-3.7363924980163574,0.7910704612731934,-0.08857545256614685,0.564592182636261,-19.234142303466797,51.00847625732422,-16.617948532104492
2.101,2.6213371753692627,-9.363115310668945,-3.926621675491333,0.7476990222930908,-0.1114829033613205,0.5303837656974792,-19.27798843383789,51.1400146484375,-17.23180389404297
2.111,2.537588357925415,-9.462416648864746,-3.9565322399139404,0.7018841505050659,-0.1443169116973877,0.494189977645874,-19.146448135375977,51.198482513427734,-16.866413116455078
2.121,2.4634108543395996,-9.45045280456543,-4.368097305297852,0.6427829265594482,-0.16249015927314758,0.46303585171699524,-18.751827239990234,51.578487396240234,-17.61180877685547
2.14,2.5196421146392822,-9.282955169677734,-4.510470390319824,0.6236934065818787,-0.1569923609495163,0.4294382631778717,-18.737211227416992,51.286170959472656,-18.415668487548828
2.144,2.6392831802368164,-9.265008926391602,-4.609772682189941,0.6160575747489929,-0.08949175477027893,0.4358523488044739,-18.576440811157227,52.03157043457031,-19.0733699798584
2.151,2.664407968521118,-9.19442081451416,-4.633700847625732,0.6122397184371948,-0.059406641870737076,0.43967023491859436,-17.641040802001953,52.23618698120117,-18.649517059326172
2.161,2.6117656230926514,-9.074779510498047,-4.621737003326416,0.6178901791572571,-0.03176499158143997,0.430965393781662,-17.757965087890625,52.45542526245117,-18.547208786010742
2.171,2.3988046646118164,-9.019744873046875,-4.723431587219238,0.6217080950737,0.01924225501716137,0.4179845154285431,-17.59719467163086,51.84156799316406,-19.0733699798584
2.181,2.3808584213256836,-9.04845905303955,-4.614558219909668,0.6082690358161926,0.05207626149058342,0.3660609722137451,-17.72873306274414,52.499271392822266,-19.71645736694336
2.2,2.779263496398926,-8.774479866027832,-4.838287353515625,0.6125450730323792,-0.0012217304902151227,0.2678644061088562,-17.26103401184082,52.543113708496094,-19.52645492553711
2.204,3.452842950820923,-8.920442581176758,-5.32403039932251,0.6265950202941895,-0.09773843735456467,0.2525927722454071,-17.173341751098633,52.85004425048828,-20.35954475402832
2.211,3.7148568630218506,-9.20877742767334,-5.917449951171875,0.666454017162323,-0.1713476926088333,0.25824329257011414,-17.275650024414062,52.338497161865234,-20.63724136352539
2.221,3.836890935897827,-9.734002113342285,-6.034698486328125,0.7470881938934326,-0.30146196484565735,0.2626720666885376,-17.31949806213379,53.34697341918945,-20.695703506469727
2.231,3.9661033153533936,-10.262815475463867,-5.5788655281066895,0.8109236359596252,-0.4628831148147583,0.24388794600963593,-16.910259246826172,53.215431213378906,-20.98801612854004
2.241,3.8572299480438232,-11.203194618225098,-4.898108005523682,0.808174729347229,-0.6696610450744629,0.21914789080619812,-17.15872573852539,53.17158508300781,-21.251096725463867
2.26,3.645465135574341,-12.736994743347168,-3.638286828994751,0.6403394937515259,-0.8458956480026245,0.1339322030544281,-16.121017456054688,53.025428771972656,-21.689563751220703
2.264,3.236292600631714,-13.903494834899902,-2.3186450004577637,0.2203696370124817,-0.821461021900177,-0.025503622367978096,-16.179479598999023,53.17158508300781,-21.748027801513672
2.271,3.4755747318267822,-13.61037540435791,-2.3976082801818848,-0.09773843735456467,-0.7163922190666199,-0.1339322030544281,-16.340251922607422,52.893890380859375,-21.601871490478516
2.281,3.6059837341308594,-12.344572067260742,-3.544966459274292,-0.47708573937416077,-0.5297728776931763,-0.2041817009449005,-16.588716506958008,53.5369758605957,-21.397253036499023
2.291,2.8977081775665283,-10.937591552734375,-3.909872055053711,-0.722959041595459,-0.3036000430583954,-0.2350304126739502,-16.311019897460938,52.66004180908203,-20.91493797302246
2.301,1.499103307723999,-9.597611427307129,-4.275973796844482,-0.8953757286071777,0.06276640295982361,-0.33628129959106445,-16.457176208496094,53.23004913330078,-20.315698623657227
2.321,0.05024927482008934,-8.37727165222168,-4.679164409637451,-0.9179776906967163,0.4053090810775757,-0.5045746564865112,-17.553346633911133,52.25080108642578,-19.409530639648438
2.325,0.3840480148792267,-7.465606689453125,-4.8538408279418945,-0.8749117255210876,0.9056077003479004,-0.802524209022522,-17.100261688232422,52.104644775390625,-20.4326229095459
2.331,0.849452018737793,-7.347161769866943,-4.785645008087158,-0.8462010622024536,1.0204503536224365,-0.8775079250335693,-17.69950294494629,52.19234085083008,-19.394912719726562
2.341,2.1475582122802734,-7.42133903503418,-4.5475592613220215,-0.7895433306694031,1.1527026891708374,-0.9750936627388,-18.6933650970459,52.04618453979492,-19.33645248413086
2.351,3.0963122844696045,-7.735995292663574,-4.159922122955322,-0.7157813310623169,1.107956886291504,-0.9915869832038879,-19.394912719726562,51.476173400878906,-18.415668487548828
2.361,3.4959137439727783,-7.952546119689941,-4.040280818939209,-0.697149932384491,0.977078914642334,-1.0045678615570068,-19.979537963867188,51.84156799316406,-18.737211227416992
2.38,4.3549370765686035,-7.93579626083374,-3.812962770462036,-0.663705050945282,0.6469062566757202,-1.081536889076233,-20.388774871826172,51.53464126586914,-17.52411651611328
2.384,4.900500774383545,-7.952546119689941,-3.867997646331787,-0.6756169199943542,0.025961771607398987,-1.1198686361312866,-21.601871490478516,51.286170959472656,-16.486408233642578
2.391,4.9531426429748535,-8.079365730285645,-3.6849467754364014,-0.6795875430107117,-0.20295996963977814,-1.1330022811889648,-21.54340934753418,50.86231994628906,-16.369482040405273
2.401,4.390829086303711,-8.132007598876953,-3.0759735107421875,-0.7096726894378662,-0.6701191663742065,-1.145830512046814,-22.361881256103516,50.68693161010742,-16.895645141601562
2.411,2.939582586288452,-8.264808654785156,-2.4885356426239014,-0.7761042714118958,-0.8057312369346619,-1.1359038352966309,-22.420345306396484,50.526161193847656,-15.887167930603027
2.421,2.273181438446045,-8.199006080627441,-2.286341905593872,-0.8449793457984924,-0.8659014701843262,-1.2153164148330688,-22.274188995361328,50.233848571777344,-15.492546081542969
2.44,2.146361827850342,-8.154739379882812,-2.413161516189575,-0.9108000993728638,-0.8373435139656067,-1.2976304292678833,-22.917274475097656,49.92692184448242,-14.717918395996094
2.444,2.407179594039917,-8.662017822265625,-2.7254250049591064,-0.9923505187034607,-0.6719517707824707,-1.3333660364151,-23.531131744384766,50.0,-14.980999946594238
2.451,2.6356940269470215,-9.236295700073242,-3.0412774085998535,-0.9989173412322998,-0.5832235813140869,-1.3519974946975708,-23.472667694091797,49.44460678100586,-14.790996551513672
2.461,3.163311243057251,-10.073782920837402,-3.0927231311798096,-0.9934195876121521,-0.5108360648155212,-1.4133893251419067,-23.808828353881836,49.12306213378906,-14.162525177001953
2.471,3.9314074516296387,-10.756933212280273,-2.8223342895507812,-1.0018190145492554,-0.5542075037956238,-1.4808900356292725,-23.794212341308594,48.83074951171875,-13.621747970581055
2.481,4.4721856117248535,-11.301301002502441,-2.6835503578186035,-1.0286970138549805,-0.6316346526145935,-1.5108224153518677,-24.48114585876465,48.77228546142578,-13.007892608642578
2.5,4.328616142272949,-11.691330909729004,-2.27677059173584,-1.1201741695404053,-0.6670648455619812,-1.514182209968567,-24.802688598632812,47.64688491821289,-12.730195999145508
2.504,4.377668857574463,-11.716455459594727,-2.2612173557281494,-1.1527026891708374,-0.6524040699005127,-1.5210545063018799,-25.021923065185547,47.909969329833984,-12.087108612060547
2.511,4.381258010864258,-11.69611644744873,-2.148754596710205,-1.204931616783142,-0.623235285282135,-1.5233452320098877,-25.21192741394043,46.945335388183594,-12.218649864196777
2.521,4.274777412414551,-11.541779518127441,-2.049452543258667,-1.2899945974349976,-0.5768095254898071,-1.5282320976257324,-26.001171112060547,47.106109619140625,-12.247880935668945
2.531,3.871586799621582,-11.443674087524414,-2.183450698852539,-1.3516920804977417,-0.5212207436561584,-1.5460999011993408,-25.855012893676758,46.25840377807617,-11.020169258117676
2.541,3.400200843811035,-11.184053421020508,-2.358126640319824,-1.3891074657440186,-0.4297436773777008,-1.5856534242630005,-26.98041534423828,45.556854248046875,-10.391697883605957
2.56,3.150151014328003,-10.685149192810059,-2.557927370071411,-1.374904990196228,-0.2142609804868698,-1.7264578342437744,-27.287343978881836,44.738380432128906,-9.149372100830078
2.563,3.3714869022369385,-10.365707397460938,-2.4358932971954346,-1.36650550365448,-0.1586722582578659,-1.7498234510421753,-28.018123626708984,44.32914352416992,-9.22244930267334
2.571,3.421736478805542,-10.230513572692871,-2.468196392059326,-1.3464996814727783,-0.09743300080299377,-1.7861698865890503,-28.17889404296875,44.3437614440918,-9.412452697753906
2.581,3.5700912475585938,-10.15753173828125,-2.4059829711914062,-1.3145819902420044,-0.04046982154250145,-1.8429803848266602,-28.310436248779297,44.13914108276367,-8.842443466186523
2.591,3.8488550186157227,-9.949356079101562,-2.555534601211548,-1.2863293886184692,-0.01237002108246088,-1.8996381759643555,-28.880443572998047,43.65682601928711,-8.827827453613281
2.601,4.104887008666992,-9.859625816345215,-2.4526431560516357,-1.2644909620285034,-0.04153883829712868,-1.9599610567092896,-29.538145065307617,43.10143280029297,-7.965507507324219
2.62,4.415954113006592,-10.130014419555664,-2.1822540760040283,-1.3028228282928467,-0.24098633229732513,-2.079537868499756,-30.53200912475586,42.57527160644531,-6.8839521408081055
2.623,4.322634220123291,-10.084550857543945,-2.2408783435821533,-1.3251194953918457,-0.2932153046131134,-2.101834535598755,-31.04355239868164,41.756797790527344,-7.0301079750061035
2.631,4.170689582824707,-9.93260669708252,-2.5435705184936523,-1.351081132888794,-0.37201693654060364,-2.1403191089630127,-31.262788772583008,41.42063903808594,-6.270096302032471
2.641,4.033102512359619,-9.772287368774414,-2.84386944770813,-1.352913737297058,-0.4628831148147583,-2.179872512817383,-31.803565979003906,40.572933197021484,-5.173925876617432
2.651,3.7160534858703613,-9.631111145019531,-3.046063184738159,-1.3512338399887085,-0.5189300179481506,-2.1986565589904785,-32.11049270629883,40.11984634399414,-5.013154029846191
2.661,3.4337005615234375,-9.555736541748047,-3.0041887760162354,-1.3130548000335693,-0.5467243790626526,-2.213317394256592,-32.797428131103516,38.97983169555664,-4.720841884613037
2.68,3.1824538707733154,-9.580862045288086,-2.5878376960754395,-1.2791517972946167,-0.4231768846511841,-2.1449005603790283,-33.045894622802734,37.679039001464844,-3.756211757659912
2.684,3.0580272674560547,-9.565308570861816,-2.3641088008880615,-1.2776246070861816,-0.3597996234893799,-2.1316142082214355,-33.045894622802734,37.649810791015625,-3.4054369926452637
2.691,3.036491870880127,-9.342775344848633,-2.427518606185913,-1.269988775253296,-0.24816399812698364,-2.09389328956604,-34.01052474975586,36.78749084472656,-3.653902292251587
2.701,2.9718856811523438,-8.927620887756348,-2.5806589126586914,-1.2611312866210938,-0.10094548016786575,-2.059837579727173,-33.67436599731445,36.59748840332031,-2.645425319671631
2.711,3.0376882553100586,-8.413164138793945,-2.957528829574585,-1.2325732707977295,0.06948591768741608,-2.0526599884033203,-34.682838439941406,35.41362380981445,-3.2154340744018555
2.721,3.067598581314087,-7.745566368103027,-3.3750762939453125,-1.2079859972000122,0.16569718718528748,-2.068847894668579,-35.311309814453125,35.325927734375,-2.1923413276672363
2.74,3.4875388145446777,-7.209574222564697,-3.390629768371582,-1.1815661191940308,0.156686931848526,-2.1287126541137695,-35.74978256225586,33.572052001953125,-2.1923413276672363
2.743,3.706482172012329,-7.15812873840332,-3.266202688217163,-1.1847730875015259,0.1417207270860672,-2.1316142082214355,-36.18824768066406,33.89359664916992,-1.9731072187423706
2.751,3.9661033153533936,-7.125825881958008,-3.0903303623199463,-1.1983648538589478,0.08689558506011963,-2.118938684463501,-36.495174407958984,32.85588836669922,-2.3092663288116455
2.761,3.8285160064697266,-6.927221298217773,-2.9144580364227295,-1.2325732707977295,0.032070424407720566,-2.041053533554077,-36.81671905517578,32.34434509277344,-1.900029182434082
2.771,3.5581271648406982,-6.579065322875977,-3.1106693744659424,-1.232725977897644,0.04199698567390442,-1.9729419946670532,-37.211341857910156,31.20432472229004,-1.3738672733306885
2.781,3.809373378753662,-6.275177478790283,-3.262613534927368,-1.200197458267212,0.052839841693639755,-1.9072738885879517,-38.029815673828125,30.415081024169922,-1.6077170372009277
2.8,4.338187217712402,-5.874379634857178,-3.3846476078033447,-1.095739483833313,0.07254024595022202,-1.7049248218536377,-38.49751663208008,28.924291610717773,-0.8623209595680237
2.803,4.353740692138672,-5.773880958557129,-3.421736478805542,-1.081842303276062,0.07024950534105301,-1.679268479347229,-38.61444091796875,28.60274887084961,-1.2715580463409424
2.811,4.285545349121094,-5.520241737365723,-3.473181962966919,-1.020603060722351,0.028710665181279182,-1.5902348756790161,-38.234432220458984,27.798887252807617,-1.5638701915740967
2.821,4.214956760406494,-5.294119834899902,-3.5712878704071045,-0.9668470025062561,-0.0503963828086853,-1.5161675214767456,-39.06752395629883,27.433500289916992,-0.7746273279190063
2.831,4.064208984375,-5.292923927307129,-3.6502509117126465,-0.9347765445709229,-0.12660181522369385,-1.45172119140625,-39.06752395629883,26.366558074951172,-0.5846244096755981
2.841,4.005584716796875,-5.265406131744385,-3.8392839431762695,-0.9152288436889648,-0.14645493030548096,-1.376584768295288,-39.389068603515625,26.264249801635742,-0.891552209854126
2.86,4.065405368804932,-5.132604598999023,-3.8021950721740723,-0.8487972617149353,-0.13775010406970978,-1.251968264579773,-39.213680267333984,25.13884925842285,-0.5407775044441223
2.864,4.00199556350708,-5.0943193435668945,-3.6837503910064697,-0.8411614298820496,-0.11789698898792267,-1.2089022397994995,-39.140602111816406,24.70037841796875,-0.7015492916107178
2.871,3.9804604053497314,-5.01296329498291,-3.792623519897461,-0.8225300312042236,-0.0832303911447525,-1.168279767036438,-39.31599044799805,24.39345359802246,-0.8623209595680237
2.881,4.0666022300720215,-4.715056896209717,-4.037888050079346,-0.7944302558898926,-0.02519819140434265,-1.1155925989151,-39.85676574707031,23.925752639770508,-0.5115463137626648
2.891,4.25084924697876,-4.149154186248779,-4.303491592407227,-0.7371616363525391,0.01237002108246088,-1.0658071041107178,-39.4621467590332,23.85267448425293,0.0
2.901,4.494917392730713,-3.779463291168213,-4.435096740722656,-0.6598871946334839,0.023518310859799385,-1.0067058801651,-39.85676574707031,22.84419822692871,-0.3215433955192566
2.916,4.8777689933776855,-3.634697675704956,-4.273581027984619,-0.508087158203125,-0.05497787147760391,-0.8674286603927612,-40.514469146728516,21.938030242919922,-0.5992400050163269
2.921,4.934000015258789,-3.6574294567108154,-4.204189300537109,-0.47800207138061523,-0.10674870014190674,-0.8323038816452026,-40.38292694091797,21.806488037109375,-0.1900029182434082
2.931,4.981856346130371,-3.702892780303955,-4.029513359069824,-0.4312708377838135,-0.2275473028421402,-0.7542658448219299,-40.45600509643555,21.92341423034668,-0.5846244096755981
2.941,4.628915309906006,-3.6083762645721436,-4.063012599945068,-0.39767327904701233,-0.3323107063770294,-0.674089789390564,-40.82139587402344,21.411867141723633,0.6430867910385132
2.951,4.439882278442383,-3.486342430114746,-4.139583110809326,-0.3640756905078888,-0.4118758738040924,-0.6090326309204102,-40.28062057495117,21.046478271484375,-0.7746273279190063
2.961,4.420739650726318,-3.2997024059295654,-4.106083393096924,-0.32788190245628357,-0.45356741547584534,-0.5297728776931763,-40.28062057495117,20.944168090820312,0.1607716977596283
2.98,3.7938201427459717,-2.5399811267852783,-4.192224979400635,-0.22571469843387604,-0.469449907541275,-0.3738495111465454,-40.10523223876953,20.82724380493164,-0.46769949793815613
2.983,3.5988051891326904,-2.2995026111602783,-4.24367094039917,-0.19715675711631775,-0.4639521539211273,-0.3527746796607971,-40.09061813354492,20.754165649414062,-0.17538732290267944
2.991,3.4265217781066895,-2.0410776138305664,-4.163511276245117,-0.14477506279945374,-0.4645630121231079,-0.34345895051956177,-39.35983657836914,20.564163208007812,0.5700087547302246
3.001,3.3379874229431152,-1.8448662757873535,-4.085744380950928,-0.0884227380156517,-0.45814892649650574,-0.32162055373191833,-39.43291473388672,20.91493797302246,0.3800058364868164
3.011,3.093919515609741,-1.691725492477417,-3.9972100257873535,-0.050243668258190155,-0.43050727248191833,-0.2900082468986511,-39.08213806152344,20.18415641784668,-0.6723180413246155
3.029,2.9108684062957764,-1.56969153881073,-3.7974092960357666,-0.027641652151942253,-0.4161519408226013,-0.2542726695537567,-39.023677825927734,20.30108070373535,1.0961706638336182
3.034,2.8342983722686768,-1.5290136337280273,-3.735196113586426,0.009162978269159794,-0.38866299390792847,-0.17287485301494598,-39.09675598144531,20.608009338378906,-0.26308098435401917
3.041,2.9168508052825928,-1.576870083808899,-3.923032522201538,0.03252857178449631,-0.3627012372016907,-0.0988074541091919,-38.804443359375,20.198772430419922,0.23384974896907806
3.051,3.128615379333496,-1.813759446144104,-3.73041033744812,0.0858265683054924,-0.3672827482223511,0.018478674814105034,-38.7459831237793,20.4326229095459,0.9061678051948547
3.061,3.267399311065674,-2.23848557472229,-3.6502509117126465,0.16371189057826996,-0.40225476026535034,0.18936823308467865,-38.760597229003906,20.505699157714844,0.8477053642272949
3.071,3.7950165271759033,-2.968296527862549,-3.1381869316101074,0.3323107063770294,-0.42562034726142883,0.4625777006149292,-38.395206451416016,21.19263458251953,1.1107863187789917
3.081,4.074976921081543,-3.9696924686431885,-3.214756965637207,0.42119157314300537,-0.43020185828208923,0.7241807579994202,-37.971351623535156,20.724933624267578,0.30692780017852783
3.094,4.04985237121582,-4.697110652923584,-3.239881753921509,0.5418374538421631,-0.42470404505729675,1.006400465965271,-37.7228889465332,21.36802101135254,-0.058462437242269516
3.101,3.864408493041992,-4.923232555389404,-3.634697675704956,0.5827654004096985,-0.385303258895874,1.1359038352966309,-37.78135299682617,21.411867141723633,0.30692780017852783
3.111,3.355933427810669,-4.907679080963135,-4.332205295562744,0.6517932415008545,-0.27977627515792847,1.268919825553894,-37.18210983276367,22.084184646606445,-0.20461852848529816
3.121,3.0891339778900146,-5.2354960441589355,-4.705485820770264,0.7475463151931763,-0.06123923882842064,1.3823879957199097,-37.3867301940918,22.522653579711914,0.1900029182434082
3.131,3.7387852668762207,-6.387639999389648,-4.864608287811279,0.7964155077934265,0.13744467496871948,1.5016595125198364,-36.81671905517578,23.194971084594727,0.9646301865577698
3.149,4.24367094039917,-6.973881244659424,-5.6554365158081055,0.8471173644065857,0.2561052441596985,1.6224581003189087,-37.15288162231445,23.633440017700195,-0.20461852848529816
3.153,4.625326156616211,-7.373482704162598,-6.496513366699219,0.9563094973564148,0.37171149253845215,1.807397484779358,-36.831336975097656,24.904998779296875,0.46769949793815613
3.161,5.111069202423096,-7.560122966766357,-6.934399604797363,1.056644082069397,0.37079522013664246,1.8936822414398193,-36.71440887451172,25.387313842773438,-0.058462437242269516
3.171,6.022734642028809,-8.319844245910645,-7.189235687255859,1.275944709777832,0.1667662113904953,2.037540912628174,-36.275943756103516,25.665008544921875,0.2192341536283493
3.181,6.440281867980957,-9.360721588134766,-7.135396957397461,1.4379767179489136,-0.07849618047475815,2.1682660579681396,-36.495174407958984,26.366558074951172,-0.8477053642272949
3.191,6.226124286651611,-10.092926025390625,-7.162914276123047,1.5641204118728638,-0.3289509117603302,2.2766947746276855,-36.18824768066406,27.404266357421875,-0.6284711956977844
3.21,5.9330034255981445,-10.951948165893555,-7.325625896453857,1.6421585083007812,-0.5355761051177979,2.3715317249298096,-35.22361755371094,28.398128509521484,-1.2277112007141113
3.214,5.863611698150635,-11.84327507019043,-7.634300231933594,1.700343370437622,-0.6436992287635803,2.5500569343566895,-34.682838439941406,30.239694595336914,-1.6954107284545898
3.221,5.733202934265137,-12.184252738952637,-7.582854747772217,1.728137731552124,-0.6557638049125671,2.671160936355591,-34.2443733215332,30.54662322998047,-2.1192634105682373
3.231,4.730610370635986,-12.470193862915039,-7.046862602233887,1.7391332387924194,-0.5280929803848267,2.8606817722320557,-33.38205337524414,31.262788772583008,-1.6807950735092163
3.241,3.135793924331665,-12.739387512207031,-6.73818826675415,1.7171422243118286,-0.2816088795661926,2.9909486770629883,-32.38819122314453,32.242034912109375,-2.1484947204589844
3.251,2.589033842086792,-12.827921867370605,-6.245266914367676,1.7056884765625,0.036041051149368286,3.0584495067596436,-32.052032470703125,33.586673736572266,-2.1484947204589844
3.269,2.0195422172546387,-12.752548217773438,-5.989234924316406,1.6745343208312988,0.45295655727386475,3.131906270980835,-31.482023239135742,34.59514617919922,-3.1277403831481934
3.273,1.9298113584518433,-12.319446563720703,-6.095715522766113,1.6352862119674683,1.0308350324630737,3.132516860961914,-30.502779006958008,35.79362487792969,-4.311604976654053
3.281,2.396411657333374,-12.147163391113281,-6.074179649353027,1.6381878852844238,1.270447015762329,3.135265827178955,-30.54662322998047,35.99824523925781,-4.048523902893066
3.291,3.2374887466430664,-12.035898208618164,-6.10050106048584,1.6475034952163696,1.4790574312210083,3.1528282165527344,-29.78661346435547,37.26980209350586,-4.750072956085205
3.301,3.8703906536102295,-12.005987167358398,-6.250052452087402,1.6684256792068481,1.5454890727996826,3.148857355117798,-29.698917388916016,38.234432220458984,-5.393159866333008
3.311,4.415954113006592,-11.96770191192627,-6.131607532501221,1.6942347288131714,1.4636330604553223,3.1277828216552734,-28.73428726196289,38.599822998046875,-6.416252136230469
3.33,4.71744966506958,-11.976076126098633,-6.037091255187988,1.7201964855194092,1.274264931678772,3.079524517059326,-28.368898391723633,39.16983413696289,-6.109324932098389
3.334,4.429114818572998,-12.376873970031738,-5.526223659515381,1.7020232677459717,0.8636107444763184,2.945592164993286,-28.398128509521484,40.44139099121094,-7.380882740020752
3.341,4.280759334564209,-12.51565933227539,-5.365904331207275,1.6494888067245483,0.6858489513397217,2.850144624710083,-27.71119499206543,40.879859924316406,-7.629348278045654
3.351,4.1730828285217285,-12.476177215576172,-5.19960355758667,1.563051462173462,0.5216789245605469,2.7455337047576904,-27.389652252197266,41.683719635009766,-8.228588104248047
3.361,3.875175952911377,-12.190234184265137,-5.170889377593994,1.4596624374389648,0.46334129571914673,2.676658868789673,-26.43963623046875,42.16603469848633,-8.418591499328613
3.371,3.55932354927063,-11.743972778320312,-5.197210788726807,1.3694071769714355,0.5044220089912415,2.6178629398345947,-25.855012893676758,42.6045036315918,-8.564746856689453
3.39,3.098705291748047,-11.169695854187012,-5.3694939613342285,1.3112223148345947,0.7512114644050598,2.593581199645996,-25.05115509033203,43.01374053955078,-8.535516738891602
3.395,3.1621150970458984,-10.292726516723633,-5.0117669105529785,1.3381003141403198,0.9266825914382935,2.5025620460510254,-24.203449249267578,43.94913864135742,-8.550130844116211
3.401,3.156132936477661,-10.053443908691406,-4.7365922927856445,1.365283727645874,1.0409142971038818,2.448500633239746,-23.998830795288086,44.16836929321289,-9.26629638671875
3.411,3.4169507026672363,-9.802197456359863,-4.721038818359375,1.4091134071350098,1.1519391536712646,2.3493876457214355,-23.794212341308594,44.50453186035156,-10.625548362731934
3.421,4.278366565704346,-9.68973445892334,-4.831109046936035,1.4744758605957031,1.1223121881484985,2.2146918773651123,-23.5895938873291,45.33761978149414,-10.420929908752441
3.431,5.026124000549316,-9.57607650756836,-5.020142078399658,1.540754795074463,0.8718574047088623,2.0448713302612305,-22.785736083984375,45.27915573120117,-11.122478485107422
3.451,5.499902248382568,-9.315258026123047,-5.123033046722412,1.5830572843551636,0.5520694851875305,1.87611985206604,-22.157264709472656,46.43379211425781,-12.072493553161621
3.454,6.104090690612793,-9.146564483642578,-5.033302307128906,1.6035212278366089,0.0003054326225537807,1.6294831037521362,-21.938030242919922,46.375328063964844,-12.584039688110352
3.461,6.206982135772705,-8.889335632324219,-5.047659397125244,1.6004668474197388,-0.38316524028778076,1.4906638860702515,-21.163402557373047,46.95995330810547,-13.344051361083984
3.471,6.075376510620117,-8.469395637512207,-4.916053771972656,1.5838208198547363,-0.8820894360542297,1.3064879179000854,-20.549545288085938,47.26688003540039,-14.07483196258545
3.481,5.531009197235107,-8.194220542907715,-4.666004180908203,1.5514450073242188,-1.4204144477844238,1.117730736732483,-19.80415153503418,47.296112060546875,-14.250219345092773
3.491,4.453042984008789,-7.947760105133057,-4.327419757843018,1.5092952251434326,-1.7099645137786865,0.9757044911384583,-19.014907836914062,48.14381790161133,-15.492546081542969
3.51,3.7950165271759033,-7.925028324127197,-3.8632121086120605,1.4566080570220947,-1.8637498617172241,0.8559749126434326,-16.734872817993164,48.406898498535156,-16.208711624145508
3.514,2.977867603302002,-7.891529083251953,-3.6191442012786865,1.3852895498275757,-1.8834502696990967,0.7382306456565857,-16.60333251953125,48.23151397705078,-16.15024757385254
3.521,2.4394824504852295,-7.77906608581543,-3.613162040710449,1.3519974946975708,-1.832595705986023,0.6743952035903931,-15.887167930603027,48.2607421875,-17.377958297729492
3.531,1.714457392692566,-7.6151580810546875,-3.913461446762085,1.3135130405426025,-1.701565146446228,0.526413083076477,-15.346389770507812,48.55305480957031,-17.918737411499023
3.541,1.467996597290039,-7.551748275756836,-4.065405368804932,1.3129020929336548,-1.606728196144104,0.38469237089157104,-14.367143630981445,49.15229415893555,-18.62028694152832
3.551,1.5445669889450073,-7.621140003204346,-3.858426570892334,1.2930489778518677,-1.4804319143295288,0.2880229651927948,-13.592517852783203,49.590763092041016,-19.33645248413086
3.57,1.1916255950927734,-7.4285173416137695,-3.4923245906829834,1.2680035829544067,-1.2883148193359375,0.2649627923965454,-13.022507667541504,49.88307571411133,-21.36802101135254
3.574,0.36251261830329895,-7.152146339416504,-3.1680970191955566,1.1896600723266602,-0.9068294763565063,0.2820670008659363,-13.197896003723145,50.263084411621094,-20.841859817504883
3.581,0.2715853750705719,-7.074379920959473,-3.153740167617798,1.1542298793792725,-0.6837109327316284,0.29565879702568054,-12.861736297607422,50.3800048828125,-21.616485595703125
3.591,0.4893321990966797,-7.11146879196167,-3.064009428024292,1.0667234659194946,-0.4161519408226013,0.327729195356369,-12.394037246704102,50.19000244140625,-21.514177322387695
3.601,0.8255237936973572,-7.319643974304199,-3.13220477104187,0.9992228150367737,-0.2102903574705124,0.3646865487098694,-12.072493553161621,51.06694030761719,-22.72727394104004
3.611,0.9810572266578674,-7.525426864624023,-3.3583264350891113,0.9462302327156067,-0.042302414774894714,0.3836233615875244,-11.79479694366455,50.760013580322266,-23.5895938873291
3.63,1.275374412536621,-7.506284236907959,-3.6011979579925537,0.896902859210968,0.006261368282139301,0.3275764584541321,-11.224788665771484,51.3592529296875,-23.9695987701416
3.633,1.7850456237792969,-7.16650390625,-3.6909286975860596,0.8923214077949524,-0.04917465150356293,0.30405816435813904,-10.990938186645508,51.198482513427734,-24.144987106323242
3.641,2.104487419128418,-7.115057945251465,-3.607180118560791,0.8900306224822998,-0.184939444065094,0.2678644061088562,-11.283249855041504,51.53464126586914,-24.349605560302734
3.651,2.3162522315979004,-7.39860725402832,-3.328416109085083,0.8782715201377869,-0.4106541574001312,0.24037547409534454,-11.619409561157227,51.7977180480957,-24.627302169799805
3.661,2.2947168350219727,-7.8687968254089355,-3.049652338027954,0.826500654220581,-0.6449209451675415,0.2028072625398636,-11.502485275268555,51.885414123535156,-25.650394439697266
3.671,1.9992032051086426,-7.916653156280518,-3.5150563716888428,0.7597636580467224,-0.8478809595108032,0.17211127281188965,-10.844781875610352,52.44080352783203,-25.89885902404785
3.69,1.3088740110397339,-7.817351341247559,-3.592823028564453,0.7137960195541382,-0.9812023043632507,0.14278973639011383,-10.800935745239258,51.82695388793945,-26.118093490600586
3.695,0.19621144235134125,-7.489534854888916,-3.376272678375244,0.626747727394104,-0.9929614663124084,0.10247264802455902,-9.880152702331543,51.94387435913086,-27.52119255065918
3.702,-0.32662028074264526,-7.2394843101501465,-3.13938307762146,0.5871942043304443,-0.8967501521110535,0.09117163717746735,-10.318620681762695,52.13387680053711,-27.594270706176758
3.711,-0.8303093910217285,-6.912864685058594,-3.0508487224578857,0.521373450756073,-0.7035639882087708,0.08399397134780884,-10.377082824707031,51.84156799316406,-27.038877487182617
3.721,-0.8159525394439697,-6.620940208435059,-3.0077779293060303,0.4534147381782532,-0.5015203952789307,0.06108652427792549,-10.114001274108887,52.63081359863281,-28.60274887084961
3.731,-0.14715859293937683,-6.453442096710205,-3.0687947273254395,0.3741549551486969,-0.36514467000961304,0.037110064178705215,-9.880152702331543,52.309268951416016,-28.80736541748047
3.75,0.6448656916618347,-6.252445697784424,-3.4121649265289307,0.2684752643108368,-0.39874228835105896,0.07406741380691528,-10.040924072265625,52.8208122253418,-28.573516845703125
3.754,0.9487541317939758,-5.821736812591553,-3.8775689601898193,0.2635883390903473,-0.42806383967399597,0.09285151958465576,-9.836304664611816,53.36158752441406,-28.865829467773438
3.761,0.8255237936973572,-5.934199810028076,-3.7567315101623535,0.24358251690864563,-0.46364670991897583,0.13118331134319305,-10.172464370727539,53.28851318359375,-29.24583625793457
3.771,0.5324030518531799,-6.210570812225342,-3.438485860824585,0.18310685455799103,-0.47448956966400146,0.17119498550891876,-9.704765319824219,52.893890380859375,-28.953521728515625
3.781,0.4007977545261383,-6.67717170715332,-2.9623141288757324,0.09636398404836655,-0.4106541574001312,0.20311269164085388,-9.35399055480957,52.733116149902344,-30.00584602355957
3.791,0.14715859293937683,-7.010970115661621,-2.7290141582489014,-0.029626963660120964,-0.25793784856796265,0.2655736804008484,-9.660917282104492,53.08388900756836,-29.406606674194336
3.81,-0.34695929288864136,-7.211967468261719,-2.3700907230377197,-0.2408336102962494,0.10690141469240189,0.30604347586631775,-9.485530853271484,52.64542770385742,-29.508914947509766
3.813,-0.21296119689941406,-7.2394843101501465,-2.5806589126586914,-0.289244681596756,0.247094988822937,0.3228422701358795,-8.681672096252441,52.543113708496094,-29.508914947509766
3.821,0.019142581149935722,-7.379465103149414,-2.6596221923828125,-0.33597588539123535,0.4934263825416565,0.3799581825733185,-9.237065315246582,52.64542770385742,-28.924291610717773
3.831,0.5347958207130432,-7.753941535949707,-2.7840490341186523,-0.36743542551994324,0.7409795522689819,0.42730024456977844,-9.35399055480957,52.55773162841797,-29.36275863647461
3.841,1.25862455368042,-8.288737297058105,-3.2578277587890625,-0.33567044138908386,0.8885034918785095,0.4375322163105011,-9.558608055114746,53.05466079711914,-29.055830001831055
3.851,2.3509480953216553,-9.17886734008789,-3.5509486198425293,-0.2831360399723053,0.8698720932006836,0.3988949954509735,-9.412452697753906,52.45542526245117,-28.763521194458008
3.871,3.806980848312378,-10.65284538269043,-3.7399816513061523,-0.15042555332183838,0.47311511635780334,0.19425514340400696,-9.77784252166748,52.528499603271484,-29.216602325439453
3.875,4.0725836753845215,-11.649456977844238,-3.1070802211761475,-0.13011428713798523,0.28237244486808777,0.13347405195236206,-9.850920677185059,52.499271392822266,-28.938907623291016
3.881,4.444667816162109,-12.585049629211426,-2.4502503871917725,-0.12736541032791138,0.08704829961061478,0.076052725315094,-9.397836685180664,52.323883056640625,-29.15814208984375
3.891,4.596611976623535,-14.824732780456543,-0.9272187352180481,-0.34804046154022217,-0.34804046154022217,0.009926560334861279,-9.982461929321289,52.309268951416016,-28.763521194458008
3.901,3.655036449432373,-16.218551635742188,-1.1210373640060425,-0.7067710757255554,-0.37659841775894165,-0.025961771607398987,-9.938613891601562,52.923118591308594,-29.070446014404297
3.911,2.633301258087158,-15.354743003845215,-1.7204394340515137,-1.0343475341796875,-0.2542726695537567,-0.1082758679986,-9.383220672607422,52.13387680053711,-28.07658576965332
3.929,1.3399806022644043,-13.552947044372559,-2.3988046646118164,-1.3901766538619995,0.08933904021978378,-0.408363401889801,-10.274772644042969,51.973106384277344,-26.775794982910156
3.933,1.2957134246826172,-13.572089195251465,-2.44785737991333,-1.4106405973434448,0.1569923609495163,-0.43646320700645447,-10.45016098022461,52.075416564941406,-26.658872604370117
3.941,1.2035897970199585,-14.152349472045898,-2.8594231605529785,-1.4485142230987549,0.3758348524570465,-0.49907687306404114,-10.479392051696777,52.090030670166016,-26.30809783935547
3.951,0.9798608422279358,-14.749358177185059,-3.792623519897461,-1.4407256841659546,0.7591527700424194,-0.6837109327316284,-11.122478485107422,51.95848846435547,-25.518856048583984
3.961,1.8161523342132568,-14.831910133361816,-4.4614176750183105,-1.3843733072280884,0.9130908250808716,-0.9288205504417419,-11.882491111755371,52.002342224121094,-25.22654151916504
3.971,2.9730820655822754,-14.575879096984863,-4.565505504608154,-1.3460414409637451,0.9106473326683044,-1.1505646705627441,-12.554807662963867,51.710025787353516,-23.984214782714844
3.99,4.156332969665527,-15.500703811645508,-3.792623519897461,-1.4187344312667847,0.6117815375328064,-1.3495540618896484,-14.45483684539795,51.476173400878906,-22.65419578552246
3.994,3.923032522201538,-15.839288711547852,-3.511467218399048,-1.4700472354888916,0.5664247870445251,-1.377806544303894,-14.644840240478516,50.789241790771484,-22.054954528808594
4.001,3.476771354675293,-15.967305183410645,-3.4983065128326416,-1.5942054986953735,0.575893223285675,-1.4141530990600586,-15.18561840057373,50.65769958496094,-20.798011779785156
4.011,2.882154941558838,-15.40379524230957,-3.5700912475585938,-1.7218763828277588,0.6397286653518677,-1.4871513843536377,-15.609471321105957,51.06694030761719,-20.344928741455078
4.021,2.66560435295105,-14.91685676574707,-3.830909013748169,-1.826028823852539,0.7302893400192261,-1.5595389604568481,-16.384098052978516,50.49692916870117,-20.447237014770508
4.031,2.623729705810547,-14.243276596069336,-4.340579986572266,-1.860390067100525,0.8390233516693115,-1.6293302774429321,-17.15872573852539,50.30692672729492,-18.824905395507812
4.044,2.227717876434326,-13.433305740356445,-4.55354118347168,-1.808924674987793,0.926224410533905,-1.7780760526657104,-18.327974319458008,49.70768737792969,-17.62642478942871
4.051,2.2612173557281494,-12.936795234680176,-4.707878589630127,-1.756237506866455,0.963792622089386,-1.8872681856155396,-18.985675811767578,48.8599853515625,-17.50950050354004
4.061,3.0520453453063965,-12.177074432373047,-4.887340068817139,-1.6522377729415894,0.9376780986785889,-2.0172297954559326,-19.80415153503418,48.406898498535156,-16.9541072845459
4.071,3.425325632095337,-11.886346817016602,-4.577469348907471,-1.549612283706665,0.8199338316917419,-2.1041252613067627,-20.92955207824707,48.465362548828125,-16.2525577545166
4.081,3.5676984786987305,-11.840882301330566,-4.2484564781188965,-1.5062408447265625,0.6528621912002563,-2.1836905479431152,-21.967260360717773,48.216896057128906,-15.887167930603027
4.1,3.7603206634521484,-11.801400184631348,-3.909872055053711,-1.507615327835083,0.46731188893318176,-2.249358654022217,-22.94650650024414,47.354576110839844,-14.367143630981445
4.104,3.5569305419921875,-11.278569221496582,-3.4887354373931885,-1.5848898887634277,0.24938572943210602,-2.3153319358825684,-24.028060913085938,46.88687515258789,-13.738672256469727
4.111,3.451646566390991,-10.945966720581055,-3.4229326248168945,-1.637576937675476,0.15225815773010254,-2.3664917945861816,-24.992692947387695,46.33148193359375,-13.329436302185059
4.121,3.4480574131011963,-10.833503723144531,-3.2171499729156494,-1.7229453325271606,0.01618792861700058,-2.451249361038208,-25.460391998291016,45.68839645385742,-12.642502784729004
4.131,3.427718162536621,-10.474580764770508,-3.452842950820923,-1.8304576873779297,-0.07559457421302795,-2.520277261734009,-26.264249801635742,44.88453674316406,-11.356328010559082
4.141,3.3475589752197266,-9.694520950317383,-3.750749349594116,-1.8845192193984985,-0.12370020896196365,-2.581821918487549,-27.111955642700195,44.19760513305664,-11.122478485107422
4.159,3.348755121231079,-8.886942863464355,-4.064208984375,-1.8930712938308716,-0.17989981174468994,-2.643366575241089,-27.813507080078125,43.67144012451172,-9.646302223205566
4.163,3.583251953125,-8.14397144317627,-4.1347975730896,-1.8455766439437866,-0.28099802136421204,-2.685516119003296,-29.070446014404297,42.706809997558594,-8.98859977722168
4.171,3.418147087097168,-8.076972961425781,-4.278366565704346,-1.804495930671692,-0.3084869384765625,-2.6871960163116455,-28.82198143005371,42.12218475341797,-8.593978881835938
4.181,3.2063820362091064,-7.830511569976807,-4.319044589996338,-1.730733871459961,-0.3022255599498749,-2.7038421630859375,-29.757381439208984,41.27448272705078,-7.556270122528076
4.191,3.376272678375244,-7.817351341247559,-3.8261232376098633,-1.6404786109924316,-0.304210901260376,-2.729804039001465,-30.502779006958008,40.309852600097656,-7.293189525604248
4.201,3.6299118995666504,-8.380861282348633,-3.239881753921509,-1.6076445579528809,-0.2874121069908142,-2.6989552974700928,-31.525867462158203,39.900611877441406,-6.679333686828613
4.22,3.8811581134796143,-8.660820960998535,-3.2757742404937744,-1.6076445579528809,-0.294895201921463,-2.6618452072143555,-31.905874252319336,38.73136520385742,-6.197018623352051
4.224,4.255634784698486,-8.71107006072998,-3.1441688537597656,-1.6019940376281738,-0.3220787048339844,-2.63191294670105,-32.446651458740234,37.37211227416992,-4.764688968658447
4.231,4.3896331787109375,-8.714659690856934,-3.2231318950653076,-1.6181819438934326,-0.33597588539123535,-2.573269844055176,-32.69511795043945,36.729026794433594,-5.831628322601318
4.241,4.217350006103516,-8.2755765914917,-3.686143398284912,-1.6308574676513672,-0.3923282027244568,-2.539977550506592,-33.352821350097656,36.55363845825195,-5.378544330596924
4.251,4.097708702087402,-7.81854772567749,-3.671786069869995,-1.6268868446350098,-0.5057964324951172,-2.537839651107788,-33.572052001953125,34.82899475097656,-4.633148193359375
4.261,4.285545349121094,-7.533802032470703,-3.4301111698150635,-1.6365079879760742,-0.6197227835655212,-2.5170700550079346,-34.156681060791016,33.93744659423828,-4.1362175941467285
4.279,4.255634784698486,-7.353143692016602,-3.1752755641937256,-1.6453654766082764,-0.696539044380188,-2.4413230419158936,-34.682838439941406,33.33820343017578,-3.595440149307251
4.283,3.696910858154297,-6.725028038024902,-3.148954391479492,-1.5949691534042358,-0.6707300543785095,-2.3277018070220947,-35.15053939819336,32.02280044555664,-3.770827054977417
4.291,3.3619158267974854,-6.401997089385986,-2.8522443771362305,-1.5367841720581055,-0.6061310172080994,-2.2507331371307373,-34.81438064575195,30.809703826904297,-2.908506155014038
4.301,3.0556344985961914,-6.166304111480713,-2.348555326461792,-1.471268892288208,-0.5404630303382874,-2.1736111640930176,-34.9459228515625,30.049694061279297,-2.952353000640869
4.311,2.8689942359924316,-5.855236530303955,-2.2372889518737793,-1.4257595539093018,-0.5083925724029541,-2.1038198471069336,-35.092079162597656,29.128910064697266,-1.6661795377731323
4.321,2.6356940269470215,-5.203192710876465,-2.551945447921753,-1.3764320611953735,-0.48029276728630066,-2.051743745803833,-35.735164642333984,28.60274887084961,-2.2069568634033203
4.34,2.7314069271087646,-4.880161762237549,-2.717050075531006,-1.3226759433746338,-0.5053382515907288,-2.0054705142974854,-35.340545654296875,27.652734756469727,-1.9731072187423706
4.344,3.0448665618896484,-4.850251197814941,-2.7146570682525635,-1.2263119220733643,-0.6302602291107178,-1.8938349485397339,-35.39900588989258,26.205787658691406,-0.8477053642272949
4.351,3.397808074951172,-5.071587562561035,-2.884547472000122,-1.2064588069915771,-0.6777549982070923,-1.8413004875183105,-35.69131851196289,26.045015335083008,-1.0084770917892456
4.361,3.847658634185791,-5.442475318908691,-3.0580272674560547,-1.1537716388702393,-0.7715228199958801,-1.6513214111328125,-35.735164642333984,25.12423324584961,-0.36539024114608765
4.371,3.754338502883911,-5.7200422286987305,-3.071187734603882,-1.117730736732483,-0.7872526049613953,-1.458593487739563,-35.2674674987793,24.539608001708984,-0.6284711956977844
4.381,3.0867412090301514,-5.4687957763671875,-3.0819554328918457,-1.0879509449005127,-0.7582364678382874,-1.3025174140930176,-35.106693267822266,24.422683715820312,-0.9938614368438721
4.401,2.5567307472229004,-5.213960647583008,-3.0077779293060303,-1.0384708642959595,-0.6843218207359314,-1.1882855892181396,-34.56591796875,22.858814239501953,-0.029231218621134758
4.404,2.317448616027832,-4.65523624420166,-3.4815566539764404,-0.9601274132728577,-0.48548513650894165,-1.0571023225784302,-34.40514373779297,22.318035125732422,-0.11692487448453903
4.411,2.3748762607574463,-4.340579986572266,-3.7328033447265625,-0.8944594264030457,-0.39996400475502014,-1.01617431640625,-33.89359664916992,22.054954528808594,0.5846244096755981
4.421,2.6943180561065674,-3.9218363761901855,-3.4743783473968506,-0.8119926452636719,-0.31932979822158813,-0.9425650835037231,-34.142066955566406,21.251096725463867,-0.24846535921096802
4.431,2.7074787616729736,-3.805784225463867,-3.4707889556884766,-0.7695375084877014,-0.27611106634140015,-0.8556694388389587,-33.791290283203125,20.90032196044922,0.2776965796947479
4.441,2.6524438858032227,-3.864408493041992,-3.2650065422058105,-0.7382306456565857,-0.27122417092323303,-0.7773259878158569,-34.31745147705078,20.476469039916992,0.07307805120944977
4.46,2.1272192001342773,-3.723231792449951,-3.1860432624816895,-0.7379251718521118,-0.28191429376602173,-0.7127270102500916,-33.820518493652344,20.038002014160156,-0.2192341536283493
4.464,1.368694543838501,-3.480360507965088,-3.3714869022369385,-0.7759515643119812,-0.2347249537706375,-0.6957755088806152,-33.48435974121094,19.204912185668945,0.33615902066230774
4.471,1.4572290182113647,-3.462414264678955,-3.476771354675293,-0.7773259878158569,-0.19333885610103607,-0.7035639882087708,-33.586673736572266,18.89798355102539,-0.029231218621134758
4.481,1.8508483171463013,-3.298506021499634,-3.899104356765747,-0.763428807258606,-0.09300423413515091,-0.6540839672088623,-33.5282096862793,18.28412628173828,0.4384683072566986
4.491,2.4574286937713623,-3.0855445861816406,-4.295116424560547,-0.6966918110847473,-0.021532999351620674,-0.5555819272994995,-33.10435485839844,18.240280151367188,0.2192341536283493
4.501,3.0556344985961914,-3.1334011554718018,-4.4721856117248535,-0.5757404565811157,0.016951510682702065,-0.3730859160423279,-33.542823791503906,17.918737411499023,0.6138556003570557
4.522,3.3786656856536865,-3.4947173595428467,-4.505684852600098,-0.3617849349975586,0.043676864355802536,-0.058337628841400146,-34.01052474975586,17.553346633911133,0.058462437242269516
4.526,2.6727828979492188,-4.3310089111328125,-4.169493198394775,-0.08643742650747299,0.10522153228521347,0.32498031854629517,-33.74744415283203,17.947969436645508,-0.8038585186004639
4.531,2.4191436767578125,-4.468596458435059,-4.070191383361816,-0.001527163083665073,0.15546520054340363,0.42012259364128113,-33.5282096862793,17.42180633544922,-0.26308098435401917
4.541,2.234896183013916,-4.776073932647705,-3.992424488067627,0.1385136991739273,0.2929098606109619,0.5800164937973022,-33.64513397216797,17.100261688232422,-0.3215433955192566
4.551,2.2576282024383545,-5.300102233886719,-3.8632121086120605,0.21914789080619812,0.469449907541275,0.7228062748908997,-33.76205825805664,17.62642478942871,-0.5553931593894958
4.561,2.396411657333374,-5.630311489105225,-4.470988750457764,0.2567161023616791,0.6937901973724365,0.8686503767967224,-34.08360290527344,18.06489372253418,-0.7892428636550903
4.58,3.125026226043701,-5.592026710510254,-5.7164530754089355,0.30802878737449646,0.8941540122032166,0.9476047158241272,-34.21514129638672,17.78719711303711,-1.1984800100326538
4.584,4.183850288391113,-5.570490837097168,-5.781059741973877,0.4714352488517761,0.9495900273323059,1.1131491661071777,-34.551300048828125,18.327974319458008,-1.0523239374160767
4.591,4.522434711456299,-5.699703216552734,-5.819344520568848,0.5659666657447815,0.8953757286071777,1.2214250564575195,-34.81438064575195,18.401052474975586,-1.490792155265808
4.601,4.8119659423828125,-6.2321062088012695,-5.38624382019043,0.7128797769546509,0.7606799602508545,1.3487904071807861,-35.296695709228516,18.5325927734375,-1.5054078102111816
4.611,5.283352375030518,-7.087540626525879,-4.82632303237915,0.8084800839424133,0.5720753073692322,1.4840971231460571,-35.50131607055664,19.409530639648438,-1.4323296546936035
4.621,5.498706340789795,-7.501498699188232,-5.398207664489746,0.9054549932479858,0.2886338233947754,1.664149522781372,-35.44285202026367,19.81876564025879,-1.3592517375946045
4.641,5.19960355758667,-7.4907307624816895,-5.974877834320068,1.0277807712554932,0.06062837690114975,1.7983872890472412,-35.01900100708008,21.046478271484375,-1.900029182434082
4.644,4.912464618682861,-7.623532772064209,-6.57547664642334,1.2667818069458008,-0.2119702398777008,1.9706512689590454,-35.22361755371094,21.704179763793945,-1.7977200746536255
4.651,4.750949382781982,-7.854439735412598,-6.803991317749023,1.3454307317733765,-0.2871066629886627,2.023643732070923,-34.916690826416016,21.674949645996094,-2.1046478748321533
4.661,4.64805793762207,-8.103293418884277,-7.217949390411377,1.4982997179031372,-0.41111230850219727,2.132530450820923,-34.58053207397461,23.12189483642578,-1.6661795377731323
4.671,4.535595417022705,-8.58903694152832,-7.304090976715088,1.6614007949829102,-0.5006040930747986,2.283566951751709,-34.33206558227539,24.40806770324707,-1.4323296546936035
4.681,4.041477203369141,-9.538987159729004,-7.4632134437561035,1.7511979341506958,-0.46700647473335266,2.4158191680908203,-33.5282096862793,24.934228897094727,-2.4115755558013916
4.7,3.445664644241333,-10.415956497192383,-7.479963302612305,1.795332908630371,-0.2460259646177292,2.607478380203247,-32.75358200073242,26.79041290283203,-2.1046478748321533
4.703,2.8486552238464355,-11.497512817382812,-7.712067127227783,1.7904459238052368,-0.18555031716823578,2.6302330493927,-32.57819366455078,27.199649810791016,-2.1631100177764893
4.711,2.7672994136810303,-11.802597045898438,-8.158329010009766,1.7892242670059204,0.0959058403968811,2.691624879837036,-32.066646575927734,27.798887252807617,-2.4846534729003906
4.721,2.7457637786865234,-12.096914291381836,-7.752745151519775,1.7742581367492676,0.43249258399009705,2.7701210975646973,-32.08126449584961,29.28968048095703,-3.566208839416504
4.731,3.0448665618896484,-11.956934928894043,-7.576872825622559,1.7707456350326538,0.751669704914093,2.84831166267395,-31.876644134521484,29.80122947692871,-3.3762056827545166
4.741,3.390629768371582,-12.016755104064941,-7.022934436798096,1.7545576095581055,1.0181596279144287,2.9213104248046875,-31.248172760009766,30.57585334777832,-3.946214437484741
4.76,3.596412181854248,-12.139985084533691,-6.545566558837891,1.6983580589294434,1.23226797580719,2.984534740447998,-31.81818199157715,32.73896408081055,-5.173925876617432
4.764,4.061816215515137,-11.82891845703125,-6.22492790222168,1.598176121711731,1.4010194540023804,3.0057623386383057,-31.686643600463867,32.402809143066406,-4.793920040130615
4.771,4.372883319854736,-11.460424423217773,-5.938985824584961,1.5529721975326538,1.417970895767212,2.995530605316162,-31.49663734436035,32.797428131103516,-5.75855016708374
4.781,4.961517333984375,-10.928020477294922,-5.803791522979736,1.4978415966033936,1.3726141452789307,2.9637653827667236,-31.072786331176758,34.200523376464844,-5.75855016708374
4.791,5.245067119598389,-10.284351348876953,-5.974877834320068,1.4822643995285034,1.2583823204040527,2.9132161140441895,-30.809703826904297,34.726688385009766,-5.963168621063232
4.801,5.341976165771484,-9.422935485839844,-6.0909295082092285,1.5149458646774292,1.0861183404922485,2.836400032043457,-31.218942642211914,35.48670196533203,-6.8547210693359375
4.82,5.294119834899902,-8.896513938903809,-6.185446262359619,1.6644550561904907,0.6716462969779968,2.657721757888794,-30.44431495666504,37.18210983276367,-7.307804584503174
4.824,5.101497650146484,-8.70389175415039,-5.904289722442627,1.7014124393463135,0.5761985778808594,2.608088970184326,-30.53200912475586,37.094417572021484,-7.0885701179504395
4.831,5.018945217132568,-8.72064208984375,-5.647061347961426,1.7568484544754028,0.45204025506973267,2.5395195484161377,-29.494300842285156,37.95673751831055,-7.57088565826416
4.841,4.872982978820801,-8.781658172607422,-5.346762180328369,1.8156441450119019,0.3156646192073822,2.4521658420562744,-29.1873722076416,38.71674728393555,-8.389359474182129
4.851,4.803591251373291,-8.736194610595703,-5.296512603759766,1.8405369520187378,0.19333885610103607,2.358550548553467,-29.09967803955078,38.775211334228516,-9.631686210632324
4.861,4.902893543243408,-8.629714965820312,-5.239084720611572,1.8712329864501953,0.041691552847623825,2.2511911392211914,-28.222742080688477,39.81291961669922,-10.05553913116455
4.88,4.8562331199646,-8.708678245544434,-4.931607246398926,1.8887953758239746,-0.3058907687664032,2.0344865322113037,-26.731950759887695,41.53756332397461,-11.414791107177734
4.883,4.750949382781982,-8.822336196899414,-4.657629013061523,1.8906278610229492,-0.3793473243713379,1.977981686592102,-27.06810760498047,41.49371337890625,-11.926337242126465
4.891,4.7365922927856445,-8.902496337890625,-4.442275047302246,1.888489842414856,-0.4815145432949066,1.913535237312317,-25.796550750732422,42.01987838745117,-12.540192604064941
4.901,4.369294166564941,-8.848657608032227,-4.372883319854736,1.8700112104415894,-0.573144257068634,1.824501633644104,-25.25577163696289,42.72142791748047,-12.408652305603027
4.911,4.122833251953125,-8.797212600708008,-4.271188259124756,1.8695530891418457,-0.6656904220581055,1.7059937715530396,-23.984214782714844,43.02835464477539,-13.563285827636719
4.921,3.8703906536102295,-8.928817749023438,-3.9936206340789795,1.8348864316940308,-0.7225008606910706,1.5815300941467285,-22.75650405883789,44.48991394042969,-14.878690719604492
4.94,3.355933427810669,-9.001798629760742,-3.9517464637756348,1.7502816915512085,-0.6985243558883667,1.4101823568344116,-21.66033363342285,44.85530471801758,-14.747150421142578
4.943,3.150151014328003,-8.958727836608887,-3.8356947898864746,1.7345517873764038,-0.6866125464439392,1.3573424816131592,-21.8503360748291,44.94300079345703,-15.741011619567871
4.951,2.9216363430023193,-8.910871505737305,-3.669393539428711,1.6919440031051636,-0.64217209815979,1.2825114727020264,-20.695703506469727,45.60070037841797,-16.179479598999023
4.961,2.660818576812744,-8.647661209106445,-3.796213150024414,1.605048418045044,-0.5774204134941101,1.171334147453308,-20.476469039916992,45.84916687011719,-16.866413116455078
4.971,2.5806589126586914,-8.137989044189453,-3.999603033065796,1.519832730293274,-0.526413083076477,1.0458012819290161,-20.1110782623291,46.33148193359375,-17.567962646484375
4.981,2.410768747329712,-7.619943618774414,-3.9421751499176025,1.423926830291748,-0.42439863085746765,0.9367618560791016,-19.24875831604004,47.281497955322266,-18.678749084472656
4.996,2.166700839996338,-7.147360801696777,-3.8464622497558594,1.3312280178070068,-0.2929098606109619,0.8364272713661194,-19.234142303466797,47.296112060546875,-19.16106414794922
5.001,2.0781664848327637,-7.1748785972595215,-3.8189449310302734,1.3025174140930176,-0.24862214922904968,0.8068002462387085,-18.678749084472656,47.69073486328125,-19.7310733795166
5.011,1.9800606966018677,-7.244270324707031,-3.7674992084503174,1.232725977897644,-0.144622340798378,0.7438811659812927,-18.079509735107422,47.64688491821289,-20.09646224975586
5.021,2.00518536567688,-7.29691219329834,-3.702892780303955,1.1800389289855957,-0.03252857178449631,0.6722572445869446,-17.684886932373047,48.01227569580078,-21.221864700317383
5.031,1.987239122390747,-7.3292155265808105,-3.504288673400879,1.1207849979400635,0.08338310569524765,0.5951354503631592,-17.655654907226562,48.099971771240234,-21.36802101135254
5.041,1.836491346359253,-6.977470874786377,-3.5700912475585938,1.069472312927246,0.1719585657119751,0.513126790523529,-17.187957763671875,48.50920867919922,-22.405729293823242
5.059,2.170289993286133,-6.361319065093994,-3.6538400650024414,0.9886853694915771,0.14233160018920898,0.3399465084075928,-17.62642478942871,48.596900939941406,-22.65419578552246
5.062,2.3270199298858643,-6.276373863220215,-3.7639100551605225,0.9587529897689819,0.0780380368232727,0.2952006161212921,-17.50950050354004,49.020755767822266,-22.44957733154297
5.071,2.39401912689209,-6.238088607788086,-3.7184462547302246,0.9103419184684753,-0.04932736977934837,0.2506074607372284,-17.670272827148438,48.77228546142578,-22.244956970214844
5.081,2.14516544342041,-6.606583118438721,-3.5258240699768066,0.7950411438941956,-0.21074850857257843,0.22189679741859436,-17.31949806213379,49.48845672607422,-23.66267204284668
5.091,1.4763715267181396,-7.23589563369751,-3.2195427417755127,0.6840163469314575,-0.20082195103168488,0.24953843653202057,-17.684886932373047,48.8599853515625,-23.677288055419922
5.109,1.0851449966430664,-7.5493550300598145,-2.874976396560669,0.5809328556060791,-0.07788532227277756,0.28557947278022766,-17.407190322875977,49.42999267578125,-24.39345359802246
5.113,0.9188438653945923,-7.385447025299072,-3.0664021968841553,0.5076289772987366,0.1287398487329483,0.32498031854629517,-17.363344192504883,49.780765533447266,-24.49576187133789
5.121,0.9726824164390564,-7.089932918548584,-3.3367910385131836,0.5068654417991638,0.2539672255516052,0.3410155177116394,-17.582576751708984,49.44460678100586,-25.13884925842285
5.131,1.2957134246826172,-6.64486837387085,-3.5784661769866943,0.5754350423812866,0.3475823402404785,0.3275764584541321,-17.187957763671875,49.166908264160156,-25.475008010864258
5.141,1.7850456237792969,-6.370890140533447,-3.8177483081817627,0.661414384841919,0.3145955801010132,0.31673359870910645,-16.96872329711914,49.31306457519531,-26.147327423095703
5.151,2.3569302558898926,-6.330212116241455,-4.0558342933654785,0.7524333000183105,0.20906862616539001,0.30436357855796814,-17.14410972595215,49.473838806152344,-25.723472595214844
5.161,2.6835503578186035,-6.279962539672852,-4.412364959716797,0.840397834777832,0.07941248267889023,0.29993483424186707,-17.027183532714844,49.35691452026367,-26.86349105834961
5.174,2.7074787616729736,-6.879364967346191,-3.3583264350891113,0.8964447379112244,-0.14676035940647125,0.3347541391849518,-16.778718948364258,49.41537857055664,-26.702720642089844
5.181,2.221735715866089,-7.244270324707031,-2.7050859928131104,0.8575020432472229,-0.24938572943210602,0.3197879493236542,-17.290266036987305,49.86845779418945,-27.50657844543457
5.191,1.875972867012024,-7.745566368103027,-2.396411657333374,0.7794640064239502,-0.3150537610054016,0.293826162815094,-16.76410484313965,49.7223014831543,-28.003507614135742
5.201,2.4945175647735596,-8.286344528198242,-2.0865414142608643,0.6501132845878601,-0.3413209319114685,0.304210901260376,-17.567962646484375,50.07307434082031,-28.018123626708984
5.211,3.2231318950653076,-8.539983749389648,-3.218346357345581,0.49327367544174194,-0.3805690407752991,0.3643811345100403,-17.26103401184082,50.07307434082031,-28.880443572998047
5.23,3.5473594665527344,-8.60219669342041,-4.210171222686768,0.41462478041648865,-0.5319108963012695,0.39568793773651123,-17.202571868896484,50.30692672729492,-29.37737464904785
5.234,3.2781667709350586,-9.353543281555176,-3.8775689601898193,0.3712533414363861,-0.9040805101394653,0.34437528252601624,-17.027183532714844,50.3800048828125,-29.742765426635742
5.241,3.3535408973693848,-10.167102813720703,-3.765106201171875,0.3237585723400116,-1.1045970916748047,0.2719877362251282,-16.501022338867188,51.02309036254883,-30.064308166503906
5.251,3.5641093254089355,-11.627921104431152,-3.568894863128662,0.2324342280626297,-1.3333660364151,0.21349740028381348,-16.413330078125,50.67231750488281,-29.36275863647461
5.261,3.4157540798187256,-13.135398864746094,-3.480360507965088,0.0832303911447525,-1.4581352472305298,0.20723602175712585,-16.340251922607422,50.11692810058594,-30.298158645629883
5.271,2.926422119140625,-14.474184036254883,-3.046063184738159,-0.11468994617462158,-1.3851369619369507,0.23151792585849762,-16.07716941833496,50.0584602355957,-30.35662078857422
5.289,2.0362918376922607,-15.212368965148926,-2.7493531703948975,-0.3752239942550659,-1.0438159704208374,0.2762638032436371,-15.18561840057373,50.11692810058594,-30.47354507446289
5.294,0.4295116364955902,-14.566307067871094,-2.720639228820801,-0.695164680480957,-0.23548854887485504,0.275347501039505,-15.171003341674805,50.11692810058594,-30.035078048706055
5.301,-0.18424732983112335,-13.95254898071289,-2.6500511169433594,-0.8090909719467163,0.17547103762626648,0.19624045491218567,-14.498684883117676,49.239986419677734,-29.479684829711914
5.311,-0.5132604241371155,-13.788640022277832,-3.1334011554718018,-0.9358454942703247,0.6685919761657715,0.0503963828086853,-15.258696556091309,48.74305725097656,-28.865829467773438
5.321,-0.035892337560653687,-13.914262771606445,-3.73041033744812,-1.0170906782150269,1.094212293624878,-0.17027868330478668,-15.448699951171875,48.78690719604492,-28.71967315673828
5.331,1.5002998113632202,-14.006386756896973,-3.789034366607666,-1.059698462486267,1.3463469743728638,-0.4141666293144226,-15.989476203918457,48.37766647338867,-28.471206665039062
5.35,3.060420036315918,-14.510075569152832,-3.3858439922332764,-1.0992519855499268,1.4633276462554932,-0.5878050327301025,-16.910259246826172,48.80152130126953,-28.04735565185547
5.354,4.226921081542969,-14.976676940917969,-3.671786069869995,-1.1536190509796143,1.3347405195236206,-0.7480044364929199,-17.655654907226562,48.24612808227539,-27.15580177307129
5.361,4.624129772186279,-14.998210906982422,-3.7627134323120117,-1.1936306953430176,1.151633620262146,-0.868803083896637,-17.684886932373047,48.30459213256836,-26.775794982910156
5.371,5.016552448272705,-14.987444877624512,-3.7387852668762207,-1.2472341060638428,0.8356636762619019,-1.0160216093063354,-18.152587890625,47.851505279541016,-25.285005569458008
5.383,5.225924491882324,-14.68116283416748,-3.94815731048584,-1.3214542865753174,0.3851505219936371,-1.1444560289382935,-18.35720443725586,47.486114501953125,-24.364221572875977
5.391,4.995017051696777,-14.390435218811035,-3.94815731048584,-1.3391693830490112,0.20815233886241913,-1.171486735343933,-18.6933650970459,47.32534408569336,-24.349605560302734
5.401,4.353740692138672,-13.927423477172852,-3.9828531742095947,-1.352608323097229,0.04596760869026184,-1.1953105926513672,-19.43876075744629,47.1207275390625,-23.341127395629883
5.411,3.8536407947540283,-13.60917854309082,-4.217350006103516,-1.3449724912643433,-0.03436116874217987,-1.2307407855987549,-20.02338409423828,47.00379943847656,-23.341127395629883
5.421,3.3343982696533203,-13.440484046936035,-4.1144585609436035,-1.3124439716339111,-0.04001167416572571,-1.2666290998458862,-20.228002548217773,46.667640686035156,-22.069570541381836
5.44,2.6967110633850098,-13.125828742980957,-4.156332969665527,-1.2935072183609009,0.08674286305904388,-1.3096951246261597,-20.768781661987305,46.27302169799805,-21.09032440185547
5.444,2.803191661834717,-12.403196334838867,-4.018745422363281,-1.2345587015151978,0.22250765562057495,-1.4695889949798584,-21.031862258911133,46.62379455566406,-21.10494041442871
5.451,2.9312076568603516,-12.198609352111816,-3.862015724182129,-1.23394775390625,0.28191429376602173,-1.5351043939590454,-21.36802101135254,46.346099853515625,-21.514177322387695
5.461,3.1178479194641113,-11.860024452209473,-3.7842490673065186,-1.2518155574798584,0.29794952273368835,-1.6459764242172241,-21.704179763793945,45.62993240356445,-20.067232131958008
5.471,3.1130621433258057,-11.520244598388672,-3.456432342529297,-1.2985467910766602,0.28099802136421204,-1.7608189582824707,-23.048816680908203,45.206077575683594,-19.409530639648438
5.481,2.906083106994629,-10.919646263122559,-3.4085757732391357,-1.3660473823547363,0.28237244486808777,-1.8793268203735352,-23.151124954223633,45.162235260009766,-18.474130630493164
5.5,3.005384922027588,-10.268797874450684,-3.3655049800872803,-1.4402674436569214,0.2718350291252136,-2.0424277782440186,-24.101139068603516,45.001461029052734,-18.927213668823242
5.504,3.55214524269104,-9.263812065124512,-3.597608804702759,-1.4676038026809692,0.23411409556865692,-2.155285120010376,-25.358083724975586,44.48991394042969,-17.62642478942871
5.511,3.726821184158325,-8.764909744262695,-3.7399816513061523,-1.4457652568817139,0.17516560852527618,-2.196976900100708,-25.50423812866211,43.978370666503906,-17.81642723083496
5.521,3.6406795978546143,-8.465806007385254,-3.3415768146514893,-1.397354245185852,0.029932396486401558,-2.26737904548645,-26.264249801635742,43.876060485839844,-16.23794174194336
5.531,3.5641093254089355,-8.39162826538086,-3.3128626346588135,-1.36955988407135,-0.12186761200428009,-2.3403773307800293,-26.86349105834961,43.59836196899414,-16.76410484313965
5.541,3.7220354080200195,-8.599804878234863,-3.0927231311798096,-1.337183952331543,-0.35613444447517395,-2.4333815574645996,-27.740427017211914,42.72142791748047,-15.974861145019531
5.56,3.678964614868164,-8.919245719909668,-2.8582265377044678,-1.354135513305664,-0.5561928153038025,-2.478433132171631,-28.588130950927734,42.77988815307617,-14.484068870544434
5.564,3.276970386505127,-8.919245719909668,-2.904886484146118,-1.4060590267181396,-0.7538076639175415,-2.520735502243042,-29.36275863647461,41.712947845458984,-14.060215950012207
5.571,3.332005262374878,-8.770891189575195,-2.8797619342803955,-1.437824010848999,-0.8684976100921631,-2.5439484119415283,-29.538145065307617,41.186790466308594,-13.154048919677734
5.581,3.428914785385132,-8.797212600708008,-2.654836893081665,-1.494939923286438,-0.9926559925079346,-2.5160012245178223,-30.35662078857422,40.85062789916992,-12.627885818481445
5.591,3.205185890197754,-8.799604415893555,-2.9276182651519775,-1.5809192657470703,-1.067945122718811,-2.4106268882751465,-30.692779541015625,39.82753372192383,-13.139432907104492
5.601,2.6141586303710938,-8.48734188079834,-3.0723841190338135,-1.5972598791122437,-1.0290025472640991,-2.3159430027008057,-30.152002334594727,39.43291473388672,-12.627885818481445
5.621,2.148754596710205,-8.094919204711914,-2.878565549850464,-1.5920674800872803,-0.9150761365890503,-2.217135429382324,-30.89739990234375,38.1028938293457,-11.23940372467041
5.624,1.688136339187622,-7.743173599243164,-2.9527430534362793,-1.5274685621261597,-0.5859724879264832,-2.060142993927002,-30.853551864624023,37.92750549316406,-11.064016342163086
5.631,1.621137261390686,-7.53021240234375,-2.874976396560669,-1.4885258674621582,-0.4612032473087311,-2.0175352096557617,-31.277402877807617,37.284420013427734,-10.537854194641113
5.641,1.7754743099212646,-7.527820110321045,-2.7314069271087646,-1.4104878902435303,-0.2460259646177292,-1.9408715963363647,-31.847414016723633,37.45980453491211,-10.435544967651367
5.651,2.1056838035583496,-7.508677005767822,-2.819941520690918,-1.3576478958129883,-0.016951510682702065,-1.8475618362426758,-32.69511795043945,36.18824768066406,-10.230926513671875
5.661,2.7218358516693115,-7.665406703948975,-2.8893332481384277,-1.3199270963668823,0.06108652427792549,-1.7967073917388916,-32.88512420654297,35.472084045410156,-9.73399543762207
5.68,2.7625136375427246,-8.085347175598145,-2.5124638080596924,-1.342529058456421,0.06154467165470123,-1.7537940740585327,-33.74744415283203,35.12131118774414,-9.836304664611816
5.684,2.8893332481384277,-8.420342445373535,-2.228914260864258,-1.4631749391555786,0.09437867254018784,-1.6963727474212646,-34.30283737182617,34.50745391845703,-9.441683769226074
5.691,3.0903303623199463,-8.366503715515137,-2.337787628173828,-1.510364294052124,0.11820242553949356,-1.6639968156814575,-34.50745391845703,33.805904388427734,-9.134756088256836
5.701,3.148954391479492,-7.88076114654541,-2.6524438858032227,-1.5809192657470703,0.23441952466964722,-1.540754795074463,-34.77053451538086,33.542823791503906,-8.257820129394531
5.711,2.9252257347106934,-7.071987152099609,-2.9551358222961426,-1.5697710514068604,0.32650747895240784,-1.4622586965560913,-34.989768981933594,32.34434509277344,-7.717041492462158
5.721,2.8797619342803955,-6.626922130584717,-3.049652338027954,-1.5085316896438599,0.40714165568351746,-1.403157353401184,-35.25284957885742,31.891260147094727,-8.155509948730469
5.741,2.825923442840576,-6.142375469207764,-3.1513471603393555,-1.4117095470428467,0.4683809280395508,-1.373835802078247,-36.17363357543945,30.152002334594727,-7.351651668548584
5.744,3.4444680213928223,-5.582455158233643,-3.0556344985961914,-1.2209669351577759,0.451582133769989,-1.3497066497802734,-36.524410247802734,30.254310607910156,-7.819350719451904
5.751,3.7495527267456055,-5.648257732391357,-2.957528829574585,-1.1334604024887085,0.3943135142326355,-1.3148874044418335,-36.55363845825195,29.36275863647461,-8.199357032775879
5.761,4.244867324829102,-5.964109897613525,-2.803191661834717,-1.0396926403045654,0.266184538602829,-1.256091594696045,-37.109031677246094,28.515052795410156,-7.161648750305176
5.771,4.266402721405029,-6.026323318481445,-2.6763720512390137,-0.9734137058258057,0.09025533497333527,-1.2043209075927734,-37.32826614379883,27.901199340820312,-7.673194885253906
5.781,4.080958843231201,-5.982056140899658,-2.7038893699645996,-0.9315694570541382,-0.10613783448934555,-1.1607966423034668,-37.474422454833984,28.16427993774414,-7.497807502746582
5.8,3.706482172012329,-5.8157548904418945,-2.761317014694214,-0.9141597747802734,-0.275347501039505,-1.115287184715271,-38.029815673828125,26.848873138427734,-6.971645355224609
5.804,3.6394829750061035,-5.595615386962891,-2.8079774379730225,-0.9075930714607239,-0.44348815083503723,-1.0175487995147705,-38.07366180419922,26.52733039855957,-7.263957500457764
5.811,3.377469062805176,-5.322834014892578,-2.7637100219726562,-0.9127854108810425,-0.5138903856277466,-0.9538660645484924,-38.395206451416016,26.176557540893555,-6.562408924102783
5.821,2.830709218978882,-5.015356063842773,-2.7074787616729736,-0.9065240025520325,-0.5615379214286804,-0.8539896011352539,-38.05904769897461,25.606548309326172,-6.781642913818359
5.831,2.187039852142334,-4.750949382781982,-2.8115665912628174,-0.8984300494194031,-0.5054909586906433,-0.7518223524093628,-38.33674621582031,24.992692947387695,-6.007015228271484
5.841,1.750349760055542,-4.447060585021973,-2.9036900997161865,-0.8564330339431763,-0.36804628372192383,-0.6734789609909058,-37.591346740722656,24.49576187133789,-6.620871067047119
5.86,1.6043875217437744,-4.302295207977295,-2.6871397495269775,-0.7938193678855896,-0.14156801998615265,-0.5916229486465454,-37.664424896240234,23.77959632873535,-5.685472011566162
5.864,1.4715858697891235,-3.73758864402771,-2.9276182651519775,-0.7385360598564148,0.10445795953273773,-0.5300782918930054,-38.015201568603516,23.443437576293945,-6.518562316894531
5.871,1.7168502807617188,-3.4205398559570312,-3.0352954864501953,-0.6934847235679626,0.22892174124717712,-0.5077817440032959,-38.04443359375,23.69190216064453,-5.553931713104248
5.881,2.1858434677124023,-3.1094729900360107,-3.2829525470733643,-0.6392704248428345,0.33017265796661377,-0.47021350264549255,-38.33674621582031,23.268049240112305,-5.904706001281738
5.891,2.575873613357544,-2.8319056034088135,-3.785445213317871,-0.5829181671142578,0.3602577745914459,-0.43936482071876526,-38.1028938293457,22.464191436767578,-5.8900909423828125
5.901,2.8450660705566406,-2.620140552520752,-4.146761417388916,-0.4605923891067505,0.3400992155075073,-0.36682456731796265,-38.17597198486328,22.639577865600586,-6.211634159088135
5.92,3.3379874229431152,-3.201596736907959,-3.1645078659057617,-0.2834414541721344,0.21044306457042694,-0.14477506279945374,-38.263668060302734,21.631101608276367,-7.073955059051514
5.923,3.937389612197876,-4.791627407073975,-2.8929224014282227,-0.266184538602829,0.16493360698223114,-0.050243668258190155,-38.97983169555664,22.259572982788086,-6.562408924102783
5.931,4.395615100860596,-5.758327960968018,-3.2721848487854004,-0.23869559168815613,0.10415252298116684,0.09957103431224823,-38.775211334228516,21.952646255493164,-6.927798748016357
5.941,4.7641096115112305,-6.501298904418945,-3.8249268531799316,-0.1820378452539444,0.005955935921519995,0.29474249482154846,-39.08213806152344,21.733409881591797,-6.167787551879883
5.951,4.989035129547119,-6.81475830078125,-4.291527271270752,-0.09682214260101318,-0.10125090926885605,0.513737678527832,-38.804443359375,21.528793334960938,-6.372405529022217
5.961,5.114657878875732,-7.062416076660156,-4.676771640777588,0.043218713253736496,-0.15531249344348907,0.6855435371398926,-39.16983413696289,21.864952087402344,-7.278573513031006
5.98,5.097908020019531,-7.82692289352417,-4.534398555755615,0.12980885803699493,-0.2073887437582016,0.8466591835021973,-38.33674621582031,21.674949645996094,-6.474714756011963
5.984,4.543970108032227,-8.148756980895996,-4.967499732971191,0.21960605680942535,-0.21853703260421753,1.0155634880065918,-38.205204010009766,21.674949645996094,-6.664718151092529
5.991,3.999603033065796,-7.794619560241699,-5.3587260246276855,0.24984388053417206,-0.16569718718528748,1.049619197845459,-38.61444091796875,21.938030242919922,-6.971645355224609
6.001,3.6681969165802,-6.990631103515625,-5.989234924316406,0.3326161205768585,-0.06398813426494598,1.0699304342269897,-37.89827346801758,22.5518856048584,-7.05933952331543
6.011,3.893122434616089,-6.52044153213501,-6.437889099121094,0.45494186878204346,-0.013744467869400978,1.061072826385498,-37.54750061035156,22.698041915893555,-7.0447235107421875
6.021,4.309473514556885,-6.27876615524292,-6.530013084411621,0.5824600458145142,-0.04657847434282303,1.0543533563613892,-37.679039001464844,22.902660369873047,-7.17626428604126
6.041,4.597808361053467,-6.580262184143066,-6.661618232727051,0.7982481718063354,-0.22647827863693237,1.1340713500976562,-37.708274841308594,23.896520614624023,-7.3370361328125
6.044,5.441278457641602,-7.361518859863281,-6.452245712280273,0.8469646573066711,-0.30482175946235657,1.1771372556686401,-37.37211227416992,24.11575698852539,-7.585501670837402
6.051,5.669793128967285,-7.776673316955566,-6.276373863220215,0.8871290683746338,-0.4005748927593231,1.2394455671310425,-37.34288024902344,24.641918182373047,-8.023969650268555
6.061,5.800201892852783,-8.660820960998535,-6.186642646789551,0.9928087592124939,-0.6420193314552307,1.444390892982483,-36.831336975097656,24.612686157226562,-8.1262788772583
6.071,5.56331205368042,-10.254441261291504,-6.025127410888672,1.077413558959961,-0.8639161586761475,1.616654872894287,-36.495174407958984,24.96346092224121,-8.374743461608887
6.081,4.64805793762207,-10.821539878845215,-6.305087566375732,1.1533136367797852,-0.93889981508255,1.7959438562393188,-35.311309814453125,25.81116485595703,-7.541654109954834
6.1,3.4995031356811523,-10.50927734375,-6.320640563964844,1.3281736373901367,-0.9576839804649353,2.021505832672119,-34.27360534667969,27.08272361755371,-7.541654109954834
6.103,3.315255641937256,-10.53200912475586,-6.296712398529053,1.3810136318206787,-0.9060658812522888,2.088701009750366,-34.142066955566406,27.301958084106445,-8.067816734313965
6.111,2.633301258087158,-10.753344535827637,-6.138786315917969,1.4587461948394775,-0.7533495426177979,2.2067506313323975,-33.46974563598633,27.60888671875,-8.75475025177002
6.121,1.2478569746017456,-11.196017265319824,-5.7678985595703125,1.5812246799468994,-0.4360050857067108,2.3292291164398193,-32.987430572509766,28.354280471801758,-7.746273040771484
6.131,0.46061834692955017,-11.759527206420898,-5.131407737731934,1.6820173263549805,-0.003359758760780096,2.393217086791992,-32.51972961425781,29.523530960083008,-8.98859977722168
6.141,0.45463627576828003,-12.508480072021484,-4.180261135101318,1.7287486791610718,0.4680754840373993,2.414903163909912,-32.56357955932617,30.488161087036133,-8.827827453613281
6.16,1.2741780281066895,-12.760923385620117,-4.115654468536377,1.6733125448226929,1.275944709777832,2.4946208000183105,-31.701257705688477,31.59894561767578,-10.4063138961792
6.164,2.7637100219726562,-11.867203712463379,-4.748556613922119,1.6769777536392212,1.373835802078247,2.5221099853515625,-32.00818634033203,31.891260147094727,-10.844781875610352
6.171,3.2099714279174805,-11.533404350280762,-5.294119834899902,1.6832391023635864,1.463938593864441,2.55952525138855,-31.423559188842773,32.622039794921875,-10.874013900756836
6.181,3.8979079723358154,-11.24028491973877,-5.9018964767456055,1.7066047191619873,1.4744758605957031,2.574186086654663,-31.905874252319336,33.572052001953125,-11.005553245544434
6.191,4.828715801239014,-11.144571304321289,-5.797809600830078,1.7327191829681396,1.3051135540008545,2.556471109390259,-31.45279312133789,33.922828674316406,-12.364805221557617
6.201,5.085944175720215,-10.904091835021973,-5.595615386962891,1.7209601402282715,1.080467939376831,2.5754077434539795,-31.160480499267578,35.282081604003906,-12.744811058044434
6.22,3.8847475051879883,-10.197013854980469,-5.1218366622924805,1.6476562023162842,0.6527094841003418,2.487443208694458,-30.195850372314453,35.895938873291016,-13.987138748168945
6.224,3.7124643325805664,-10.073782920837402,-5.120640754699707,1.6268868446350098,0.6258314251899719,2.462397813796997,-29.742765426635742,36.20286560058594,-14.425606727600098
6.231,3.566502094268799,-9.768697738647461,-5.036891460418701,1.6041321754455566,0.5658139586448669,2.381763458251953,-29.8889217376709,36.55363845825195,-13.943290710449219
6.241,3.4504499435424805,-9.452845573425293,-4.77248477935791,1.5847371816635132,0.48288896679878235,2.2634084224700928,-29.45045280456543,37.92750549316406,-14.045600891113281
6.251,3.2063820362091064,-9.06401252746582,-4.862215518951416,1.5732834339141846,0.45005494356155396,2.149482011795044,-28.80736541748047,37.95673751831055,-15.22946548461914
6.261,3.0508487224578857,-8.612964630126953,-4.949553489685059,1.6061173677444458,0.388357549905777,1.9645425081253052,-28.222742080688477,38.73136520385742,-14.557147026062012
6.28,3.187239646911621,-8.605786323547363,-5.084747791290283,1.711033582687378,0.3145955801010132,1.6986634731292725,-27.08272361755371,39.710609436035156,-16.018707275390625
6.283,3.370290756225586,-8.695516586303711,-4.797609329223633,1.722334623336792,0.24419337511062622,1.6131422519683838,-27.301958084106445,39.91522979736328,-16.311019897460938
6.291,3.896711587905884,-9.005387306213379,-4.88853645324707,1.718058466911316,0.09422595798969269,1.4960088729858398,-26.351943969726562,40.04676818847656,-16.924875259399414
6.301,4.18145751953125,-9.1776704788208,-4.433900356292725,1.6865988969802856,-0.1437060534954071,1.363909363746643,-26.05963134765625,40.397544860839844,-17.056415557861328
6.311,4.517648696899414,-9.329615592956543,-4.238884925842285,1.5989397764205933,-0.4732678234577179,1.2315043210983276,-25.78193473815918,41.069862365722656,-18.16720199584961
6.321,4.587040901184082,-9.390631675720215,-4.260420799255371,1.4204144477844238,-0.7698429226875305,1.1722503900527954,-25.095001220703125,41.61064147949219,-18.079509735107422
6.339,2.379662036895752,-8.398807525634766,-4.837090969085693,1.2997685670852661,-0.8487972617149353,1.1659890413284302,-24.75884246826172,42.18064880371094,-19.117216110229492
6.342,2.0267207622528076,-8.250452041625977,-4.869393825531006,1.2935072183609009,-0.7867944240570068,1.1343767642974854,-24.057292938232422,42.15141677856445,-20.125694274902344
6.351,1.1461620330810547,-7.704888343811035,-5.0117669105529785,1.3158036470413208,-0.6154467463493347,1.073595643043518,-23.487285614013672,42.282955169677734,-20.344928741455078
6.361,1.1473584175109863,-7.393821716308594,-4.922036170959473,1.3854422569274902,-0.39324450492858887,0.9663887619972229,-22.975738525390625,43.01374053955078,-20.944168090820312
6.371,1.7623138427734375,-7.192824363708496,-4.735395908355713,1.5054773092269897,-0.16722436249256134,0.8561276793479919,-22.142648696899414,43.30604934692383,-21.309558868408203
6.381,2.8594231605529785,-7.543373107910156,-4.128815174102783,1.556179165840149,-0.13545936346054077,0.7948883771896362,-22.39111328125,43.78836441040039,-21.338788986206055
6.393,3.4360930919647217,-8.165507316589355,-3.9278182983398438,1.5007431507110596,-0.2838996350765228,0.7328855395317078,-21.83572006225586,43.34989929199219,-22.522653579711914
6.401,3.735196113586426,-8.47178840637207,-3.999603033065796,1.4228578805923462,-0.5042692422866821,0.6695082783699036,-21.864952087402344,43.90529251098633,-22.72727394104004
6.411,4.074976921081543,-8.689535140991211,-4.029513359069824,1.2470813989639282,-0.8413141369819641,0.5925393104553223,-21.338788986206055,44.10990905761719,-22.712656021118164
6.421,3.62153697013855,-8.115257263183594,-4.42193603515625,1.0627528429031372,-1.1110111474990845,0.611323356628418,-21.324174880981445,44.431453704833984,-23.604209899902344
6.431,1.9441683292388916,-7.001399040222168,-4.504488468170166,0.9926559925079346,-1.151328206062317,0.6282749176025391,-20.09646224975586,44.38760757446289,-23.604209899902344
6.441,0.4630111753940582,-6.482156753540039,-4.436293125152588,0.9740245938301086,-0.9592111706733704,0.6270532011985779,-19.614147186279297,44.577606201171875,-24.159603118896484
6.457,0.5431707501411438,-6.178267955780029,-4.660021781921387,0.9772316217422485,-0.36713001132011414,0.508698046207428,-19.029523849487305,44.89915466308594,-24.32037353515625
6.461,0.9571290016174316,-5.980859756469727,-4.333401679992676,1.005178689956665,-0.3602577745914459,0.4786129295825958,-19.05875587463379,45.08915710449219,-25.168079376220703
6.471,1.7635102272033691,-7.026523113250732,-2.940778970718384,1.0500773191452026,-0.2255619913339615,0.48579058051109314,-18.854137420654297,45.0599250793457,-25.41654396057129
6.481,1.6474583148956299,-6.626922130584717,-3.6681969165802,1.0323622226715088,-0.0809396430850029,0.4671592116355896,-18.72259521484375,45.615318298339844,-26.921951293945312
6.491,2.44785737991333,-6.296712398529053,-4.384847164154053,1.0448850393295288,-0.24266621470451355,0.3396410644054413,-18.298744201660156,45.366851806640625,-27.55042266845703
6.509,3.387040376663208,-6.269195556640625,-4.4614176750183105,1.0441213846206665,-0.5247332453727722,0.26022857427597046,-17.72873306274414,45.761470794677734,-28.018123626708984
6.513,3.387040376663208,-6.196214199066162,-3.9278182983398438,0.9940304756164551,-0.9286679029464722,0.2690861225128174,-17.860275268554688,45.95147705078125,-28.003507614135742
6.521,2.6835503578186035,-6.241677761077881,-3.6610186100006104,0.9532551765441895,-1.0783298015594482,0.2684752643108368,-17.62642478942871,46.287635803222656,-28.456592559814453
6.531,1.0815558433532715,-5.869593620300293,-3.3858439922332764,0.8784242272377014,-1.0680978298187256,0.26679539680480957,-17.202571868896484,45.8199348449707,-29.333528518676758
6.541,0.8937192559242249,-5.278566360473633,-3.2135608196258545,0.834747314453125,-0.9479101300239563,0.242513507604599,-16.851797103881836,46.38994216918945,-29.523530960083008
6.551,1.3040882349014282,-4.563112735748291,-3.022134780883789,0.8547531962394714,-0.7481572031974792,0.29886582493782043,-17.14410972595215,46.21455764770508,-30.53200912475586
6.561,1.7132608890533447,-3.6358938217163086,-3.8739798069000244,0.9274461269378662,-0.5239696502685547,0.408363401889801,-16.76410484313965,46.375328063964844,-30.312772750854492
6.573,2.8007986545562744,-3.5856447219848633,-3.9864423274993896,1.1024589538574219,-0.5288565754890442,0.4876231551170349,-16.734872817993164,46.302249908447266,-31.394329071044922
6.581,3.623929738998413,-4.71027135848999,-2.9383859634399414,1.134834885597229,-0.7240279912948608,0.5612324476242065,-16.749486923217773,46.71148681640625,-31.613563537597656
6.591,4.033102512359619,-5.825326442718506,-2.6560330390930176,1.0198395252227783,-0.8906415104866028,0.6682865619659424,-15.653318405151367,46.57994842529297,-31.71587371826172
6.601,3.8500516414642334,-6.7585272789001465,-2.902493953704834,0.8478809595108032,-0.9279043078422546,0.8216137290000916,-15.580240249633789,47.03303146362305,-32.57819366455078
6.611,3.0855445861816406,-7.019344806671143,-3.7495527267456055,0.6546947956085205,-0.8428412675857544,0.9436340928077698,-15.214850425720215,46.08301544189453,-33.367435455322266
6.63,2.5746772289276123,-7.348358154296875,-4.859822750091553,0.5398521423339844,-0.8006916046142578,0.9418014883995056,-14.937153816223145,46.550716400146484,-33.30897521972656
6.634,2.3844475746154785,-9.56052303314209,-3.919443368911743,0.40714165568351746,-0.6620252132415771,0.9013316631317139,-14.162525177001953,46.126861572265625,-34.127445220947266
6.641,2.8462624549865723,-11.509476661682129,-2.9934210777282715,0.2681698203086853,-0.5523748993873596,0.879493236541748,-14.279450416564941,46.170711517333984,-34.2443733215332
6.651,3.231506824493408,-14.20738410949707,-3.0544381141662598,-0.01542434748262167,-0.3022255599498749,0.9001098871231079,-13.621747970581055,45.542240142822266,-34.58053207397461
6.661,3.2099714279174805,-15.677773475646973,-3.7124643325805664,-0.35445454716682434,0.06123923882842064,0.8541423082351685,-13.197896003723145,45.33761978149414,-34.346683502197266
6.671,3.087937355041504,-15.517454147338867,-3.397808074951172,-0.6653849482536316,0.3962987959384918,0.6681338548660278,-12.803274154663086,45.4837760925293,-34.142066955566406
6.689,2.884547472000122,-14.464612007141113,-3.7639100551605225,-1.0493137836456299,0.7544185519218445,0.3491095006465912,-12.847121238708496,44.94300079345703,-34.21514129638672
